#time,accel_x,accel_y,accel_z
678.025388,-2163.111630,995.414202,-9035.298138
678.027836,2890.529701,4153.940034,-8537.591037
678.030285,-363.709035,727.418070,-8480.163294
678.032795,-2392.822600,-3254.238736,-9418.149754
678.035304,516.849682,-6489.334891,-8920.442653
678.037814,-172.283227,7599.604578,-8288.737486
678.040324,-918.843878,2507.678085,-9092.725880
678.042834,287.138712,-4249.652938,-9111.868461
678.045343,-2163.111630,-995.414202,-8901.300072
678.047853,-689.132909,8595.018779,-8537.591037
678.050363,3675.375514,1033.699363,-8307.880067
678.052873,-1569.691626,-2986.242605,-8786.444587
678.055383,-612.562586,6010.770371,-9245.866526
678.057892,3349.951640,1703.689691,-8288.737486
678.060402,-1320.838075,1531.406464,-7637.889739
678.062912,-1052.841944,-861.416136,-9437.292334
678.065422,3043.670347,1033.699363,-9265.009107
678.067931,-1225.125171,6106.483275,-8116.454259
678.070441,-76.570323,11045.269122,-7963.313613
678.072951,3598.805190,248.853550,-8480.163294
678.075461,-2488.535504,-9150.153622,-9456.434915
678.077970,-2086.541307,401.994197,-9915.856854
678.080480,4919.643266,4766.502619,-8327.022648
678.082990,-421.136778,6183.053598,-7580.461997
678.085500,-2813.959378,-2067.398726,-9762.716208
678.088009,2833.101958,-3790.230998,-9552.147819
678.090519,401.994197,8231.309744,-7771.887805
678.093029,-2967.100024,5742.774240,-7905.885870
678.095539,1148.554848,-3081.955509,-9265.009107
678.098048,-1148.554848,-2622.533570,-9399.007173
678.100558,-2565.105827,7484.749093,-9073.583299
678.103068,1741.974853,-3273.381317,-8614.161360
678.105578,-1856.830338,3981.656806,-8231.309744
678.108087,-2086.541307,1282.552914,-9724.431046
678.110597,2431.107762,-4019.941968,-9111.868461
678.113107,-995.414202,5130.211654,-7905.885870
678.115617,-229.710970,7312.465866,-8365.307810
678.118126,3273.381317,5895.914886,-8461.020714
678.120636,1646.261949,-516.849682,-8652.446522
678.123146,-5589.633594,-3445.664544,-8767.302006
678.125656,2986.242605,-4843.072942,-9475.577496
678.128166,-1167.697429,-2469.392923,-8154.739421
678.130675,-1550.549045,12442.677520,-8614.161360
678.133224,3311.666478,-7408.178770,-9284.151688
678.135772,-2335.394858,421.136778,-8480.163294
678.138321,-995.414202,-7025.327154,-9360.722011
678.140869,4115.654872,11408.978157,-7886.743290
678.143418,1818.545176,-7178.467800,-8441.878133
678.145966,-3771.088418,1665.404530,-9265.009107
678.148515,3407.379382,-5934.200048,-9762.716208
678.151063,440.279358,7274.180704,-7197.610381
678.153612,-2699.103893,-3120.240670,-8537.591037
678.156160,4307.080680,957.129040,-9399.007173
678.158709,-650.847747,-2775.674216,-9399.007173
678.161257,-2411.965181,1933.400661,-8346.165229
678.163806,2545.963246,-2201.396792,-7848.458128
678.166354,4096.512291,3866.801322,-8709.874264
678.168903,-631.705166,6585.047795,-9628.718142
678.171451,1493.121302,-2469.392923,-8556.733618
678.174000,3081.955509,516.849682,-7044.469734
678.176548,689.132909,7867.600709,-8135.596840
678.179097,3981.656806,1014.556782,-9801.001370
678.181645,-267.996131,-6336.194245,-9341.579430
678.184194,-1301.695494,4019.941968,-8097.311678
678.186742,4919.643266,1301.695494,-7580.461997
678.189291,3388.236802,5666.203917,-8997.012976
678.191839,-2373.680019,746.560651,-9781.858789
678.194388,-784.845813,-2048.256146,-8671.589102
678.196936,2660.818731,-497.707101,-7369.893608
678.199485,-1799.402595,1914.258080,-8633.303941
678.202033,325.423874,-4460.221326,-10470.991698
678.204582,-38.285162,-918.843878,-8958.727814
678.207130,-4173.082614,1263.410333,-8288.737486
678.209679,2297.109696,-2833.101958,-8997.012976
678.212227,-803.988394,1091.127106,-8633.303941
678.214776,-823.130974,5034.498750,-9150.153622
678.217324,823.130974,-5168.496816,-8729.016845
678.219873,3445.664544,10088.140082,-7408.178770
678.222421,-3081.955509,-363.709035,-8863.014910
678.224970,1914.258080,5474.778109,-9303.294269
678.227518,593.420005,-12595.818166,-9475.577496
678.230067,-2009.970984,9743.573627,-7791.030386
678.232615,4000.799387,2871.387120,-8537.591037
678.235093,918.843878,4421.936165,-7982.456194
678.237570,-1875.972918,-4594.219392,-9743.573627
678.240048,497.707101,2029.113565,-9035.298138
678.242526,2986.242605,-957.129040,-7905.885870
678.245003,-2890.529701,5455.635528,-7503.891674
678.247481,1627.119368,3732.803256,-9494.720077
678.249958,2967.100024,-6546.762634,-9820.143950
678.252436,-2775.674216,10183.852986,-8078.169098
678.254913,2545.963246,1646.261949,-7523.034254
678.257391,918.843878,2373.680019,-8039.883936
678.259868,-1741.974853,-3713.660675,-10241.280728
678.262346,-1493.121302,4249.652938,-9054.440718
678.264823,1416.550979,-5761.916821,-7389.036189
678.267301,-2756.531635,3273.381317,-7848.458128
678.269778,-1895.115499,-3905.086483,-10604.989763
678.272256,3177.668413,2603.390989,-9590.432981
678.274733,-3732.803256,3235.096155,-8020.741355
678.277211,-1091.127106,401.994197,-7714.460062
678.279688,976.271621,-3043.670347,-8901.300072
678.282166,-1110.269686,6776.473603,-10164.710405
678.284643,210.568389,6163.911018,-8575.876198
678.287121,2488.535504,440.279358,-7082.754896
678.289598,-2354.537438,-344.566454,-8461.020714
678.292076,1071.984525,3445.664544,-10260.423309
678.294553,1818.545176,-4115.654872,-9303.294269
678.297031,-2029.113565,4268.795518,-7791.030386
678.299508,-574.277424,1895.115499,-8346.165229
678.301986,1320.838075,-5015.356170,-8805.587168
678.304463,-1129.412267,3885.943902,-9513.862658
678.306941,2526.820666,4785.645200,-9092.725880
678.309418,3464.807125,7542.176835,-7178.467800
678.311896,38.285162,1052.841944,-8384.450390
678.314373,-4575.076811,-4173.082614,-9801.001370
678.316851,2718.246474,-7580.461997,-10049.854920
678.319328,-2852.244539,478.564520,-7714.460062
678.321806,325.423874,12212.966550,-7982.456194
678.324283,2641.676150,-7312.465866,-9169.296203
678.326761,-4345.365842,478.564520,-9839.286531
678.329238,746.560651,-7025.327154,-9686.145885
678.331716,2699.103893,9743.573627,-7121.040058
678.334237,153.140646,-6872.186507,-8269.594906
678.336759,-4019.941968,-593.420005,-10375.278794
678.339280,4096.512291,-6757.331022,-9934.999435
678.341802,-1148.554848,8231.309744,-6738.188442
678.344323,-95.712904,4211.367776,-7944.171032
678.346845,1914.258080,-4307.080680,-9590.432981
678.349366,-2545.963246,-3522.234867,-10241.280728
678.351888,1186.840010,3139.383251,-8403.592971
678.354409,3311.666478,-2048.256146,-7580.461997
678.356931,3426.521963,3694.518094,-8920.442653
678.359452,-1473.978722,5130.211654,-10375.278794
678.361973,1071.984525,-11925.827838,-9284.151688
678.364495,-153.140646,689.132909,-7216.752962
678.367016,-1014.556782,4249.652938,-8537.591037
678.369538,2048.256146,-1531.406464,-10145.567824
678.372059,-3081.955509,-5359.922624,-10164.710405
678.374581,-3503.092286,899.701298,-8307.880067
678.377102,2086.541307,-3598.805190,-7523.034254
678.379624,880.558717,3866.801322,-9245.866526
678.382145,-2335.394858,-1359.123237,-10356.136213
678.384667,76.570323,-6355.336826,-8901.300072
678.387188,727.418070,6661.618118,-7101.897477
678.389710,-899.701298,4823.930362,-8384.450390
678.392231,1875.972918,-6661.618118,-9915.856854
678.394753,172.283227,-133.998066,-9456.434915
678.397274,-1531.406464,6087.340694,-7867.600709
678.399795,2239.681954,-3062.812928,-7695.317482
678.402317,-1531.406464,210.568389,-9399.007173
678.404838,-4230.510357,-478.564520,-9992.427178
678.407360,4153.940034,5034.498750,-8633.303941
678.409881,669.990328,5742.774240,-6776.473603
678.412403,-1014.556782,5474.778109,-9092.725880
678.414924,1091.127106,-11696.116869,-10566.704602
678.417446,-899.701298,4077.369710,-8595.018779
678.419967,-57.427742,4536.791650,-7714.460062
678.422489,3024.527766,8059.026517,-7771.887805
678.425010,-2048.256146,-8327.022648,-10030.712339
678.427532,-689.132909,10834.700733,-9265.009107
678.430053,3139.383251,937.986459,-7867.600709
678.432575,421.136778,4441.078746,-6910.471669
678.435051,-2239.681954,-1550.549045,-10375.278794
678.437527,2335.394858,1301.695494,-10317.851051
678.440003,1167.697429,6508.477472,-7618.747158
678.442479,-3292.523898,2775.674216,-7178.467800
678.444955,1339.980656,-3751.945837,-9303.294269
678.447431,-76.570323,-3790.230998,-10796.415571
678.449907,-3943.371645,2411.965181,-9360.722011
678.452383,1914.258080,3139.383251,-7293.323285
678.454859,995.414202,-229.710970,-8135.596840
678.457335,-3885.943902,-38.285162,-10547.562021
678.459811,1952.543242,325.423874,-9858.429112
678.462287,1033.699363,708.275490,-7140.182638
678.464763,-2488.535504,708.275490,-7657.032320
678.467239,2967.100024,1225.125171,-9533.005238
678.469715,918.843878,1339.980656,-9839.286531
678.472191,-2411.965181,1971.685822,-8652.446522
678.474667,-708.275490,1914.258080,-7580.461997
678.477143,1225.125171,-9035.298138,-9265.009107
678.479619,-2756.531635,5704.489078,-10164.710405
678.482095,191.425808,3617.947771,-9245.866526
678.484571,937.986459,-3943.371645,-7408.178770
678.487047,-3847.658741,2182.254211,-8231.309744
678.489523,3464.807125,3445.664544,-9820.143950
678.491999,57.427742,-1646.261949,-9379.864592
678.494475,-2813.959378,8001.598774,-8499.305875
678.496951,306.281293,-14586.646570,-8269.594906
678.499427,3062.812928,-4019.941968,-9858.429112
678.501903,-2718.246474,-957.129040,-9724.431046
678.504379,937.986459,15141.781413,-8039.883936
678.506855,2947.957443,-8767.302006,-8116.454259
678.509331,-5474.778109,1799.402595,-8709.874264
678.511807,2009.970984,-8824.729749,-10336.993632
678.514283,2718.246474,8499.305875,-7925.028451
678.516759,-3196.810994,4900.500685,-8193.024582
678.519235,1205.982590,-1071.984525,-8767.302006
678.521711,2699.103893,-9456.434915,-10566.704602
678.524187,-3560.520029,5991.627790,-8193.024582
678.526663,-746.560651,2928.814862,-7963.313613
678.529139,4019.941968,-1416.550979,-8767.302006
678.531615,-4632.504554,1301.695494,-10107.282662
678.534122,1435.693560,-2660.818731,-9360.722011
678.536638,38.285162,-38.285162,-7178.467800
678.539155,-5149.354235,-5608.776174,-8518.448456
678.541671,-1741.974853,-9188.438784,-10528.419440
678.544188,-1550.549045,-8020.741355,-10202.995566
678.546704,-2871.387120,2067.398726,-7657.032320
678.549221,-669.990328,1263.410333,-8173.882002
678.551737,2756.531635,-3771.088418,-9533.005238
678.554254,-1875.972918,-708.275490,-10145.567824
678.556770,1033.699363,5761.916821,-8537.591037
678.559287,3215.953574,-765.703232,-7216.752962
678.561804,-3560.520029,325.423874,-8786.444587
678.564320,-153.140646,-6814.758765,-10758.130410
678.566837,3483.949706,5857.629725,-8729.016845
678.569353,-2450.250342,3828.516160,-7465.606512
678.571870,-2488.535504,-861.416136,-8882.157491
678.574386,3809.373579,-3388.236802,-10126.425243
678.576903,-3254.238736,1818.545176,-9131.011042
678.579419,-1895.115499,-669.990328,-8403.592971
678.581936,2565.105827,-5436.492947,-8614.161360
678.584452,-4575.076811,1186.840010,-9245.866526
678.586969,1225.125171,4938.785846,-9896.714274
678.589485,2603.390989,2775.674216,-7848.458128
678.592002,-1263.410333,8116.454259,-8039.883936
678.594519,-2239.681954,-440.279358,-9169.296203
678.597035,2507.678085,535.992262,-9169.296203
678.599552,-784.845813,1722.832272,-8231.309744
678.602068,-880.558717,8461.020714,-8422.735552
678.604585,3292.523898,-8116.454259,-9399.007173
678.607101,-2029.113565,7905.885870,-8595.018779
678.609618,669.990328,-1282.552914,-8709.874264
678.612134,2048.256146,4364.508422,-7465.606512
678.614651,-1301.695494,1033.699363,-9341.579430
678.617167,-2565.105827,3522.234867,-9437.292334
678.619684,3081.955509,-3905.086483,-8173.882002
678.622200,1818.545176,6891.329088,-7082.754896
678.624717,-2622.533570,2488.535504,-9571.290400
678.627234,784.845813,-12500.105262,-10700.702667
678.629750,-4268.795518,-3771.088418,-8824.729749
678.632267,4575.076811,23066.809864,-7255.038123
678.634813,4307.080680,4709.074877,-7810.172966
678.637360,-5436.492947,-4843.072942,-9724.431046
678.639907,1263.410333,-727.418070,-9992.427178
678.642454,3924.229064,4651.647134,-7810.172966
678.645001,689.132909,4747.360038,-7159.325219
678.647547,-3771.088418,1110.269686,-9839.286531
678.650094,2067.398726,-6144.768437,-10490.134278
678.652641,1933.400661,8958.727814,-7427.321350
678.655188,-1722.832272,1607.976787,-7408.178770
678.657735,2775.674216,-2737.389054,-9150.153622
678.660281,-2603.390989,2699.103893,-9858.429112
678.662828,-2258.824534,-631.705166,-9379.864592
678.665375,3330.809059,-3254.238736,-8384.450390
678.667922,2067.398726,5934.200048,-8001.598774
678.670469,-1014.556782,8863.014910,-8671.589102
678.673016,3560.520029,-2182.254211,-9724.431046
678.675562,-3579.662610,-5321.637462,-8327.022648
678.678109,-708.275490,-1052.841944,-8748.159426
678.680656,2679.961312,-2794.816797,-8441.878133
678.683203,229.710970,11868.400096,-8346.165229
678.685750,-1091.127106,-3483.949706,-9571.290400
678.688296,1359.123237,-3445.664544,-8901.300072
678.690843,-574.277424,-6431.907149,-8193.024582
678.693390,-2335.394858,9245.866526,-8384.450390
678.695937,1301.695494,-9265.009107,-9934.999435
678.698484,-2297.109696,1110.269686,-9207.581365
678.701030,-1416.550979,-3254.238736,-9590.432981
678.703577,1799.402595,3254.238736,-7465.606512
678.706124,-631.705166,210.568389,-8039.883936
678.708671,-2029.113565,-1148.554848,-10183.852986
678.711218,2009.970984,-9303.294269,-10490.134278
678.713764,-95.712904,5685.346498,-7216.752962
678.716311,-1550.549045,5417.350366,-7657.032320
678.718858,4843.072942,5417.350366,-9667.003304
678.721405,-306.281293,229.710970,-9705.288466
678.723952,-3962.514226,-2603.390989,-8863.014910
678.726499,1493.121302,-8997.012976,-7523.034254
678.729045,2986.242605,5359.922624,-7848.458128
678.731592,-1588.834206,6412.764568,-9858.429112
678.734139,861.416136,-8135.596840,-10317.851051
678.736649,-2813.959378,-5149.354235,-7963.313613
678.739159,-2297.109696,976.271621,-7867.600709
678.741669,4823.930362,5302.494882,-9303.294269
678.744179,1895.115499,-3081.955509,-9513.862658
678.746688,-5359.922624,-2679.961312,-8537.591037
678.749198,1875.972918,-5130.211654,-8135.596840
678.751708,3177.668413,2316.252277,-8250.452325
678.754218,-2947.957443,6891.329088,-9150.153622
678.756728,3751.945837,-4077.369710,-9609.575562
678.759238,-1799.402595,-9781.858789,-8671.589102
678.761748,-3158.525832,13189.238171,-7599.604578
678.764258,1416.550979,-191.425808,-9169.296203
678.766768,2699.103893,2852.244539,-8843.872330
678.769277,-3732.803256,-7752.745224,-9915.856854
678.771787,2258.824534,6297.909083,-7944.171032
678.774297,2411.965181,3062.812928,-7580.461997
678.776807,-2813.959378,5053.641331,-8709.874264
678.779317,3349.951640,-1148.554848,-10145.567824
678.781827,-287.138712,-4383.651003,-8863.014910
678.784337,-1684.547110,12136.396227,-7695.317482
678.786847,1646.261949,3809.373579,-7963.313613
678.789357,1512.263883,-1301.695494,-9418.149754
678.791866,-3751.945837,-5168.496816,-10700.702667
678.794376,1033.699363,4938.785846,-8461.020714
678.796886,3579.662610,3024.527766,-6642.475538
678.799396,-5072.783912,-172.283227,-8709.874264
678.801906,2220.539373,-3349.951640,-11504.691061
678.804416,3139.383251,7408.178770,-8977.870395
678.806926,-3120.240670,11925.827838,-6795.616184
678.809436,3713.660675,2584.248408,-7465.606512
678.811946,-574.277424,-6565.905214,-10260.423309
678.814455,-3139.383251,-976.271621,-10470.991698
678.816965,1856.830338,2679.961312,-8422.735552
678.819475,2967.100024,5704.489078,-6049.055533
678.821985,-4575.076811,861.416136,-8920.442653
678.824495,401.994197,-3005.385186,-11313.265253
678.827005,1722.832272,-267.996131,-9456.434915
678.829515,-3522.234867,8154.739421,-6967.899411
678.832025,1148.554848,-1627.119368,-8097.311678
678.834535,2488.535504,-1588.834206,-9839.286531
678.837074,-4441.078746,631.705166,-9647.860723
678.839614,669.990328,1454.836141,-8882.157491
678.842153,172.283227,-3196.810994,-7350.751027
678.844693,-3962.514226,9399.007173,-8441.878133
678.847232,1091.127106,-8537.591037,-11064.411702
678.849772,191.425808,2986.242605,-9533.005238
678.852311,-3139.383251,-1512.263883,-8173.882002
678.854851,1205.982590,5742.774240,-7063.612315
678.857391,1971.685822,-13552.947206,-10241.280728
678.859930,-3081.955509,-1052.841944,-9992.427178
678.862470,1914.258080,-1148.554848,-8997.012976
678.865009,2029.113565,3273.381317,-6336.194245
678.867549,-1952.543242,6202.196179,-7752.745224
678.870088,995.414202,-9896.714274,-10853.843314
678.872628,1761.117434,-516.849682,-9877.571693
678.875167,-2029.113565,1186.840010,-7599.604578
678.877707,1627.119368,7006.184573,-6585.047795
678.880247,1875.972918,-6891.329088,-9016.155557
678.882786,-2277.967115,-1971.685822,-10470.991698
678.885326,1818.545176,-459.421939,-8882.157491
678.887865,2201.396792,4862.215523,-5800.201982
678.890405,-1971.685822,995.414202,-7944.171032
678.892944,1914.258080,248.853550,-11332.407834
678.895484,784.845813,-3847.658741,-10068.997501
678.898023,-2679.961312,3388.236802,-7044.469734
678.900563,861.416136,-76.570323,-7350.751027
678.903103,1741.974853,-2067.398726,-9265.009107
678.905642,-3330.809059,-57.427742,-11026.126541
678.908182,-1186.840010,2105.683888,-8690.731683
678.910721,440.279358,-7216.752962,-7063.612315
678.913261,-2756.531635,4766.502619,-8346.165229
678.915800,229.710970,2297.109696,-11294.122672
678.918363,1952.543242,-4957.928427,-9801.001370
678.920925,-4058.227130,2335.394858,-7293.323285
678.923488,574.277424,3866.801322,-7618.747158
678.926050,1627.119368,-1607.976787,-9322.436850
678.928613,-2718.246474,918.843878,-10758.130410
678.931175,-3215.953574,1607.976787,-8575.876198
678.933738,4766.502619,6661.618118,-6929.614250
678.936300,-2622.533570,3694.518094,-7771.887805
678.938863,861.416136,4977.071008,-11064.411702
678.941425,2411.965181,-12614.960747,-10126.425243
678.943988,-3503.092286,7063.612315,-6795.616184
678.946550,1148.554848,3598.805190,-7369.893608
678.949113,3694.518094,7905.885870,-8997.012976
678.951675,-3828.516160,-5570.491013,-11255.837510
678.954238,-2622.533570,-5053.641331,-9686.145885
678.956800,3043.670347,-4766.502619,-6833.901346
678.959363,-574.277424,9245.866526,-7446.463931
678.961925,612.562586,-803.988394,-11370.692995
678.964488,3235.096155,-4019.941968,-9858.429112
678.967050,-2316.252277,3292.523898,-6546.762634
678.969612,1320.838075,4421.936165,-6642.475538
678.972175,1320.838075,-9628.718142,-9628.718142
678.974737,3809.373579,9628.718142,-11121.839445
678.977300,1493.121302,16079.767872,-7829.315547
678.979862,4019.941968,7216.752962,-6297.909083
678.982425,-2909.672282,-4747.360038,-8882.157491
678.984987,-1531.406464,-3637.090352,-11887.542677
678.987550,6106.483275,6221.338760,-8997.012976
678.990112,-937.986459,4287.938099,-6010.770371
678.992675,-3637.090352,-2239.681954,-7752.745224
678.995237,4383.651003,-229.710970,-10049.854920
678.997800,861.416136,3349.951640,-9858.429112
679.000362,-38.285162,3120.240670,-8441.878133
679.002925,957.129040,-133.998066,-6623.332957
679.005487,-2411.965181,-5972.485210,-9150.153622
679.008050,-1569.691626,-1205.982590,-11217.552349
679.010612,5130.211654,5627.918755,-8863.014910
679.013175,1244.267752,7503.891674,-5838.487144
679.015737,-1588.834206,4843.072942,-8116.454259
679.018300,-229.710970,-12193.823970,-10432.706536
679.020878,57.427742,-2431.107762,-10413.563955
679.023456,-1378.265818,1263.410333,-8346.165229
679.026034,3215.953574,13514.662045,-6393.621987
679.028613,-2373.680019,-2488.535504,-9188.438784
679.031191,-3598.805190,-1244.267752,-10930.413637
679.033769,2392.822600,-8556.733618,-9111.868461
679.036347,1473.978722,9475.577496,-5953.342629
679.038925,-1531.406464,4766.502619,-8327.022648
679.041504,3177.668413,-306.281293,-10356.136213
679.044082,-784.845813,-9705.288466,-10260.423309
679.046660,-1837.687757,6604.190376,-7255.038123
679.049238,4096.512291,4173.082614,-6680.760699
679.051816,-708.275490,-95.712904,-9341.579430
679.054395,-4211.367776,-4881.358104,-11294.122672
679.056973,-1397.408398,-9379.864592,-8595.018779
679.059551,-2450.250342,-6431.907149,-6910.471669
679.062129,-2967.100024,248.853550,-9934.999435
679.064708,1148.554848,861.416136,-11332.407834
679.067286,-2928.814862,-5302.494882,-9303.294269
679.069864,-5264.209720,555.134843,-7618.747158
679.072442,1531.406464,-746.560651,-8078.169098
679.075020,-746.560651,2086.541307,-9973.284597
679.077599,-2756.531635,-976.271621,-10853.843314
679.080177,306.281293,4651.647134,-7542.176835
679.082755,1454.836141,-4230.510357,-7121.040058
679.085333,-3177.668413,2029.113565,-9494.720077
679.087911,1225.125171,-5742.774240,-10815.558152
679.090490,1397.408398,1378.265818,-8422.735552
679.093068,-2871.387120,4383.651003,-7025.327154
679.095646,2928.814862,-459.421939,-8193.024582
679.098224,-995.414202,-10738.987829,-10528.419440
679.100803,-2373.680019,6508.477472,-9667.003304
679.103381,95.712904,0.000000,-7369.893608
679.105959,2373.680019,3388.236802,-7274.180704
679.108537,-3675.375514,-5455.635528,-10738.987829
679.111115,1914.258080,5704.489078,-10068.997501
679.113694,995.414202,229.710970,-7829.315547
679.116272,-3790.230998,4957.928427,-7121.040058
679.118850,2584.248408,2354.537438,-9226.723946
679.121428,1244.267752,-3254.238736,-10030.712339
679.124019,-1627.119368,5034.498750,-8958.727814
679.126609,3101.098090,4421.936165,-6738.188442
679.129199,2258.824534,-57.427742,-7867.600709
679.131790,-210.568389,-191.425808,-10719.845248
679.134380,899.701298,2641.676150,-9533.005238
679.136971,2603.390989,1320.838075,-6853.043926
679.139561,-1952.543242,9533.005238,-7006.184573
679.142152,1301.695494,-3215.953574,-10394.421374
679.144742,2986.242605,-880.558717,-10183.852986
679.147332,-631.705166,9360.722011,-7791.030386
679.149923,4326.223261,3885.943902,-6680.760699
679.152513,1703.689691,-1895.115499,-9245.866526
679.155104,-1780.260014,440.279358,-11026.126541
679.157694,0.000000,2718.246474,-9131.011042
679.160285,2603.390989,2048.256146,-6623.332957
679.162875,-3924.229064,-823.130974,-8422.735552
679.165465,-612.562586,1531.406464,-10911.271056
679.168056,3177.668413,267.996131,-9647.860723
679.170646,-746.560651,8614.161360,-7331.608446
679.173237,-2029.113565,-2986.242605,-7369.893608
679.175827,1856.830338,-2277.967115,-9418.149754
679.178417,-2373.680019,-689.132909,-10222.138147
679.181008,-229.710970,12519.247843,-7982.456194
679.183598,2718.246474,-7848.458128,-7657.032320
679.186189,-4670.789715,2641.676150,-8997.012976
679.188779,765.703232,-5647.061336,-10949.556218
679.191370,1569.691626,2603.390989,-8154.739421
679.193960,-2871.387120,1359.123237,-8039.883936
679.196550,1033.699363,1186.840010,-8709.874264
679.199141,-459.421939,-2947.957443,-9628.718142
679.201731,-3139.383251,-4938.785846,-8480.163294
679.204322,-2411.965181,1167.697429,-8327.022648
679.206912,880.558717,-6987.041992,-8805.587168
679.209503,-3445.664544,5034.498750,-9686.145885
679.212093,153.140646,-5130.211654,-10241.280728
679.214683,19.142581,191.425808,-7599.604578
679.217274,-1627.119368,3751.945837,-7905.885870
679.219864,-765.703232,401.994197,-9724.431046
679.222455,-306.281293,-7925.028451,-9992.427178
679.225045,-4268.795518,-1263.410333,-8709.874264
679.227645,-2737.389054,-574.277424,-7867.600709
679.230244,3254.238736,-4996.213589,-9341.579430
679.232844,-1856.830338,1665.404530,-9686.145885
679.235443,574.277424,3541.377448,-8595.018779
679.238043,1665.404530,-4039.084549,-7101.897477
679.240642,-1741.974853,1416.550979,-8441.878133
679.243242,-1071.984525,-2603.390989,-10509.276859
679.245841,3177.668413,5627.918755,-9226.723946
679.248441,-1684.547110,2182.254211,-7657.032320
679.251041,-2526.820666,1320.838075,-8116.454259
679.253640,1990.828403,-5608.776174,-10394.421374
679.256240,-784.845813,2852.244539,-9686.145885
679.258839,-1378.265818,2526.820666,-7733.602643
679.261439,4383.651003,3254.238736,-7331.608446
679.264038,-2679.961312,-9169.296203,-9609.575562
679.266638,976.271621,14873.785282,-9781.858789
679.269237,3311.666478,-2833.101958,-8422.735552
679.271837,-2029.113565,6757.331022,-7178.467800
679.274437,-976.271621,-8748.159426,-9705.288466
679.277036,4345.365842,9686.145885,-9150.153622
679.279636,2603.390989,5245.067139,-8193.024582
679.282235,-1435.693560,6278.766502,-7676.174901
679.284835,1703.689691,-8307.880067,-9016.155557
679.287434,631.705166,2316.252277,-9111.868461
679.290034,1033.699363,9111.868461,-8767.302006
679.292633,4039.084549,-2488.535504,-7580.461997
679.295233,-3196.810994,2813.959378,-8020.741355
679.297833,937.986459,-401.994197,-10145.567824
679.300432,2507.678085,1473.978722,-8997.012976
679.303032,1856.830338,-229.710970,-7523.034254
679.305631,-3483.949706,2584.248408,-8327.022648
679.308231,5761.916821,1818.545176,-9858.429112
679.310830,1741.974853,9322.436850,-8843.872330
679.313430,-1895.115499,3081.955509,-8039.883936
679.316029,3139.383251,-1033.699363,-7829.315547
679.318629,-114.855485,3426.521963,-8671.589102
679.321229,-133.998066,4115.654872,-10068.997501
679.323828,2718.246474,-1646.261949,-8843.872330
679.326428,440.279358,-4421.936165,-7235.895542
679.329027,-4058.227130,2947.957443,-8843.872330
679.331633,2967.100024,593.420005,-10145.567824
679.334238,2986.242605,5608.776174,-8729.016845
679.336843,-4804.787781,-1531.406464,-8059.026517
679.339449,1244.267752,-823.130974,-8250.452325
679.342054,172.283227,1818.545176,-9322.436850
679.344660,-267.996131,11925.827838,-9360.722011
679.347265,3254.238736,-7044.469734,-8958.727814
679.349870,-1952.543242,4153.940034,-7561.319416
679.352476,-2737.389054,-1071.984525,-8920.442653
679.355081,3598.805190,7523.034254,-8767.302006
679.357686,210.568389,-8154.739421,-9360.722011
679.360292,-2163.111630,4268.795518,-8422.735552
679.362897,2182.254211,-3311.666478,-8365.307810
679.365503,-344.566454,-1301.695494,-8441.878133
679.368108,-1627.119368,2909.672282,-9609.575562
679.370713,2277.967115,-248.853550,-9035.298138
679.373319,-248.853550,4153.940034,-8901.300072
679.375924,-3196.810994,306.281293,-8786.444587
679.378530,-478.564520,842.273555,-8901.300072
679.381135,880.558717,-1091.127106,-9245.866526
679.383740,-3617.947771,2947.957443,-9360.722011
679.386346,4039.084549,2545.963246,-8805.587168
679.388951,133.998066,2890.529701,-7369.893608
679.391557,-1627.119368,4402.793584,-8499.305875
679.394162,3349.951640,-4211.367776,-9915.856854
679.396767,153.140646,1914.258080,-8595.018779
679.399373,-2584.248408,1110.269686,-7963.313613
679.401978,-38.285162,267.996131,-8633.303941
679.404584,-612.562586,-7121.040058,-9820.143950
679.407189,-3101.098090,9188.438784,-9686.145885
679.409794,1033.699363,-1703.689691,-8863.014910
679.412400,114.855485,-1493.121302,-7676.174901
679.415005,-5857.629725,-4230.510357,-8939.585234
679.417610,3981.656806,3866.801322,-9801.001370
679.420216,689.132909,421.136778,-8920.442653
679.422821,-3120.240670,1837.687757,-8001.598774
679.425427,382.851616,-9552.147819,-9035.298138
679.428032,3885.943902,13208.380752,-8441.878133
679.430637,-2354.537438,-555.134843,-9111.868461
679.433243,880.558717,3617.947771,-8537.591037
679.435853,497.707101,-9341.579430,-8901.300072
679.438463,-1646.261949,9418.149754,-8307.880067
679.441073,1493.121302,-1588.834206,-8958.727814
679.443683,1205.982590,1588.834206,-8384.450390
679.446293,-2277.967115,4977.071008,-8920.442653
679.448903,3215.953574,-2029.113565,-9092.725880
679.451513,3809.373579,497.707101,-8231.309744
679.454123,-3139.383251,1282.552914,-8365.307810
679.456733,-1091.127106,76.570323,-9245.866526
679.459343,4383.651003,-937.986459,-9399.007173
679.461953,-3101.098090,3426.521963,-8403.592971
679.464563,-382.851616,-4173.082614,-8441.878133
679.467173,-421.136778,-4460.221326,-8652.446522
679.469783,-1990.828403,4268.795518,-10030.712339
679.472393,3560.520029,5513.063270,-9475.577496
679.475003,2048.256146,1895.115499,-7561.319416
679.477613,-4460.221326,153.140646,-8173.882002
679.480223,-2029.113565,-3158.525832,-10145.567824
679.482833,3541.377448,-727.418070,-9513.862658
679.485443,-4307.080680,3541.377448,-8537.591037
679.488053,-2603.390989,1684.547110,-8250.452325
679.490663,2545.963246,-784.845813,-9073.583299
679.493273,-2584.248408,6489.334891,-9781.858789
679.495883,-1129.412267,-4575.076811,-9590.432981
679.498493,2833.101958,-3235.096155,-7886.743290
679.501103,-1320.838075,6010.770371,-7944.171032
679.503712,1856.830338,9188.438784,-9035.298138
679.506322,4153.940034,-363.709035,-9475.577496
679.508932,-5781.059402,-5417.350366,-8537.591037
679.511542,-267.996131,-5551.348432,-8977.870395
679.514152,1933.400661,-363.709035,-8154.739421
679.516762,-1378.265818,14012.369146,-8958.727814
679.519372,76.570323,-8231.309744,-10145.567824
679.521982,-459.421939,-5608.776174,-8939.585234
679.524592,-2239.681954,-4096.512291,-7408.178770
679.527202,1148.554848,9915.856854,-8461.020714
679.529812,6680.760699,1244.267752,-9207.581365
679.532422,-2545.963246,-3866.801322,-8958.727814
679.535032,-765.703232,-6565.905214,-8633.303941
679.537642,3349.951640,3369.094221,-7044.469734
679.540244,-306.281293,7599.604578,-8365.307810
679.542857,287.138712,-4115.654872,-10202.995566
679.545469,3828.516160,2220.539373,-8863.014910
679.548081,3981.656806,11925.827838,-6872.186507
679.550693,2067.398726,14816.357539,-7484.749093
679.553305,2737.389054,-8652.446522,-9858.429112
679.555918,-4134.797453,-9092.725880,-10068.997501
679.558530,1569.691626,3828.516160,-8212.167163
679.561142,6125.625856,7542.176835,-6948.756830
679.563754,-3024.527766,-2833.101958,-8365.307810
679.566366,-2029.113565,-9934.999435,-11064.411702
679.568979,3694.518094,1129.412267,-8977.870395
679.571591,-1378.265818,7350.751027,-7063.612315
679.574203,746.560651,8461.020714,-8193.024582
679.576815,555.134843,-5111.069074,-9934.999435
679.579427,-3101.098090,-4957.928427,-9915.856854
679.582039,-823.130974,4211.367776,-8882.157491
679.584652,2373.680019,-4173.082614,-7561.319416
679.587264,114.855485,12193.823970,-8135.596840
679.589876,-1684.547110,1473.978722,-9609.575562
679.592488,5072.783912,3598.805190,-8863.014910
679.595100,-3656.232933,-10049.854920,-8729.016845
679.597713,344.566454,10643.274925,-7848.458128
679.600325,4709.074877,1780.260014,-8863.014910
679.602937,-612.562586,9743.573627,-8767.302006
679.605549,-2258.824534,-8135.596840,-9954.142016
679.608161,2775.674216,229.710970,-7963.313613
679.610774,2143.969050,5340.780043,-7293.323285
679.613386,-1473.978722,3196.810994,-8843.872330
679.615998,2239.681954,-3254.238736,-10049.854920
679.618610,-382.851616,3024.527766,-8882.157491
679.621222,-1875.972918,-1722.832272,-8020.741355
679.623835,2584.248408,-4153.940034,-8556.733618
679.626447,-803.988394,3732.803256,-9111.868461
679.629059,-306.281293,5417.350366,-10049.854920
679.631671,1263.410333,-1186.840010,-8059.026517
679.634283,-612.562586,1397.408398,-7101.897477
679.636896,133.998066,5398.207786,-8709.874264
679.639508,4651.647134,401.994197,-9915.856854
679.642120,-2277.967115,-2411.965181,-8901.300072
679.644734,-2967.100024,2277.967115,-7867.600709
679.647348,3426.521963,38.285162,-8327.022648
679.649962,4555.934230,7925.028451,-8920.442653
679.652576,-3349.951640,-1091.127106,-9686.145885
679.655190,4019.941968,-3196.810994,-8518.448456
679.657804,803.988394,4498.506488,-7025.327154
679.660418,-382.851616,11294.122672,-8001.598774
679.663032,5953.342629,-2105.683888,-10049.854920
679.665645,-4402.793584,-5321.637462,-8863.014910
679.668259,-1741.974853,-4173.082614,-8843.872330
679.670873,2852.244539,-2258.824534,-7523.034254
679.673487,2507.678085,57.427742,-9111.868461
679.676101,-1875.972918,4517.649069,-9762.716208
679.678715,-114.855485,-5474.778109,-9169.296203
679.681329,401.994197,-5819.344563,-7350.751027
679.683943,-1225.125171,11562.118803,-7810.172966
679.686557,6125.625856,-497.707101,-9877.571693
679.689171,-4268.795518,-5570.491013,-9801.001370
679.691785,-3828.516160,-2852.244539,-8977.870395
679.694399,4307.080680,1837.687757,-7331.608446
679.697013,-1990.828403,-2297.109696,-8480.163294
679.699627,-2258.824534,1550.549045,-10202.995566
679.702240,3292.523898,2316.252277,-9245.866526
679.704854,4192.225195,6240.481341,-6508.477472
679.707468,-3139.383251,4345.365842,-7580.461997
679.710082,3330.809059,-5685.346498,-10356.136213
679.712696,650.847747,-1741.974853,-9686.145885
679.715310,-459.421939,6872.186507,-7944.171032
679.717924,4000.799387,-6125.625856,-7350.751027
679.720538,-2641.676150,-3369.094221,-8671.589102
679.723152,-4058.227130,-172.283227,-10298.708470
679.725766,2718.246474,1282.552914,-9111.868461
679.728380,2545.963246,3771.088418,-6948.756830
679.730994,-4211.367776,-363.709035,-8154.739421
679.733608,1263.410333,-2526.820666,-9934.999435
679.736222,4173.082614,5819.344563,-9456.434915
679.738836,-2660.818731,-2813.959378,-8212.167163
679.741449,3388.236802,9437.292334,-7408.178770
679.744063,19.142581,-2660.818731,-8384.450390
679.746677,-2392.822600,8193.024582,-9801.001370
679.749291,574.277424,-11447.263318,-10011.569758
679.751905,2890.529701,9992.427178,-6527.620053
679.754519,-1722.832272,3445.664544,-7695.317482
679.757134,2182.254211,5283.352301,-9590.432981
679.759748,2584.248408,-6106.483275,-10107.282662
679.762362,-1512.263883,7484.749093,-8231.309744
679.764976,555.134843,-2067.398726,-7944.171032
679.767590,-172.283227,4594.219392,-7771.887805
679.770204,-1875.972918,5264.209720,-10049.854920
679.772818,1435.693560,937.986459,-10049.854920
679.775432,2105.683888,-880.558717,-7159.325219
679.778046,2239.681954,17285.750462,-6604.190376
679.780660,-1205.982590,-1473.978722,-9494.720077
679.783274,-1110.269686,-13055.240106,-10643.274925
679.785888,-2105.683888,2086.541307,-8958.727814
679.788502,3905.086483,10241.280728,-6987.041992
679.791116,823.130974,1397.408398,-7733.602643
679.793730,-5206.781978,2622.533570,-10394.421374
679.796344,-2756.531635,95.712904,-10202.995566
679.798958,4441.078746,-363.709035,-7695.317482
679.801572,-2565.105827,6202.196179,-7159.325219
679.804186,-1818.545176,-3177.668413,-10202.995566
679.806801,1531.406464,-1665.404530,-10164.710405
679.809415,-1339.980656,4268.795518,-8843.872330
679.812029,-1914.258080,-1741.974853,-7580.461997
679.814643,803.988394,5742.774240,-7752.745224
679.817257,-2239.681954,-8461.020714,-10432.706536
679.819871,2220.539373,5704.489078,-10049.854920
679.822485,3254.238736,-1416.550979,-7331.608446
679.825099,-1263.410333,14395.220762,-6336.194245
679.827713,-861.416136,-11772.687192,-10604.989763
679.830327,3349.951640,-306.281293,-10068.997501
679.832941,-1818.545176,-1607.976787,-8384.450390
679.835555,-1071.984525,4843.072942,-7235.895542
679.838169,1761.117434,-4785.645200,-8327.022648
679.840783,153.140646,6814.758765,-9724.431046
679.843397,2143.969050,-4211.367776,-10394.421374
679.846011,459.421939,-3885.943902,-7389.036189
679.848625,-3005.385186,-3177.668413,-7121.040058
679.851239,708.275490,-880.558717,-10241.280728
679.853854,3139.383251,-382.851616,-10432.706536
679.856468,-1971.685822,-459.421939,-8173.882002
679.859082,-3158.525832,-2201.396792,-7542.176835
679.861696,2507.678085,-4383.651003,-8633.303941
679.864310,-1129.412267,3330.809059,-10164.710405
679.866924,-1722.832272,957.129040,-10011.569758
679.869538,2124.826469,-1971.685822,-7312.465866
679.872152,-3024.527766,-4747.360038,-7886.743290
679.874766,-1378.265818,1397.408398,-10145.567824
679.877381,2718.246474,-3809.373579,-9992.427178
679.879995,689.132909,9973.284597,-7542.176835
679.882609,-1244.267752,-1512.263883,-7963.313613
679.885223,229.710970,-4287.938099,-8499.305875
679.887837,535.992262,3809.373579,-10011.569758
679.890451,861.416136,-976.271621,-9552.147819
679.893065,3924.229064,10451.849117,-7121.040058
679.895679,-3024.527766,1990.828403,-7331.608446
679.898294,-2124.826469,2947.957443,-9973.284597
679.900908,2775.674216,-13055.240106,-10356.136213
679.903522,803.988394,11734.402030,-7101.897477
679.906136,-306.281293,5551.348432,-7331.608446
679.908750,1052.841944,2316.252277,-8709.874264
679.911364,-650.847747,-6431.907149,-10624.132344
679.913978,76.570323,5513.063270,-9341.579430
679.916592,1569.691626,0.000000,-7331.608446
679.919207,-2813.959378,8709.874264,-7082.754896
679.921821,-3081.955509,210.568389,-10911.271056
679.924435,3637.090352,-1512.263883,-10241.280728
679.927049,210.568389,3235.096155,-7389.036189
679.929663,-153.140646,8652.446522,-7197.610381
679.932277,-267.996131,-5359.922624,-9628.718142
679.934891,1493.121302,1225.125171,-10088.140082
679.937505,-229.710970,6451.049730,-8863.014910
679.940120,1110.269686,306.281293,-7216.752962
679.942734,-1339.980656,5455.635528,-7810.172966
679.945348,401.994197,4134.797453,-10011.569758
679.947962,2718.246474,-612.562586,-10030.712339
679.950576,-248.853550,1225.125171,-7274.180704
679.953190,-1837.687757,5876.772306,-7771.887805
679.955804,2086.541307,-267.996131,-9647.860723
679.958417,-1359.123237,-1895.115499,-10375.278794
679.961030,-3464.807125,1875.972918,-9245.866526
679.963643,1512.263883,9265.009107,-7235.895542
679.966257,574.277424,-1665.404530,-8671.589102
679.968870,-2450.250342,1550.549045,-10394.421374
679.971483,344.566454,-9571.290400,-9513.862658
679.974096,1282.552914,4766.502619,-7025.327154
679.976709,-2086.541307,-2526.820666,-8614.161360
679.979322,3809.373579,3598.805190,-9877.571693
679.981935,95.712904,-3713.660675,-9609.575562
679.984548,-3522.234867,-95.712904,-8384.450390
679.987161,3426.521963,3158.525832,-7580.461997
679.989774,1129.412267,-1148.554848,-8441.878133
679.992387,-5876.772306,-1971.685822,-10987.841379
679.995000,3081.955509,-4268.795518,-9418.149754
679.997613,803.988394,-1339.980656,-7044.469734
680.000226,-38.285162,2373.680019,-8633.303941
680.002839,1473.978722,5245.067139,-10183.852986
680.005453,1186.840010,746.560651,-9322.436850
680.008066,-5685.346498,-4230.510357,-7848.458128
680.010679,421.136778,-6795.616184,-8173.882002
680.013292,4077.369710,4804.787781,-8901.300072
680.015905,-3981.656806,-2794.816797,-10509.276859
680.018518,-1110.269686,-2775.674216,-9016.155557
680.021131,1952.543242,-2718.246474,-7618.747158
680.023744,-1607.976787,2124.826469,-8843.872330
680.026357,-823.130974,-6163.911018,-10241.280728
680.028970,3043.670347,1225.125171,-8786.444587
680.031583,-2239.681954,4460.221326,-7561.319416
680.034196,-937.986459,-4421.936165,-8595.018779
680.036809,-1263.410333,-7733.602643,-10356.136213
680.039422,-2565.105827,861.416136,-9934.999435
680.042035,3081.955509,6910.471669,-8135.596840
680.044649,976.271621,5206.781978,-6910.471669
680.047262,-1454.836141,593.420005,-9399.007173
680.049875,-1110.269686,-4287.938099,-10088.140082
680.052488,1914.258080,-842.273555,-8346.165229
680.055101,95.712904,8958.727814,-7255.038123
680.057714,2258.824534,7255.038123,-8633.303941
680.060327,650.847747,-10432.706536,-10049.854920
680.062939,-2163.111630,2890.529701,-9054.440718
680.065551,2813.959378,-1799.402595,-7944.171032
680.068163,-708.275490,8824.729749,-7369.893608
680.070775,-1359.123237,803.988394,-10394.421374
680.073387,-4230.510357,-1244.267752,-10107.282662
680.075999,-191.425808,-9188.438784,-8250.452325
680.078611,-3292.523898,-1378.265818,-7791.030386
680.081223,325.423874,4249.652938,-9705.288466
680.083835,2699.103893,1646.261949,-10126.425243
680.086446,-4345.365842,-1454.836141,-8882.157491
680.089058,-765.703232,497.707101,-8154.739421
680.091670,2507.678085,5130.211654,-8173.882002
680.094282,-1339.980656,3139.383251,-10049.854920
680.096894,-2967.100024,2143.969050,-9456.434915
680.099506,2163.111630,-918.843878,-7867.600709
680.102118,-2392.822600,3273.381317,-7925.028451
680.104730,-497.707101,1167.697429,-10336.993632
680.107342,172.283227,-2239.681954,-9934.999435
680.109954,-976.271621,8863.014910,-7810.172966
680.112566,765.703232,172.283227,-8193.024582
680.115178,-153.140646,-2545.963246,-8843.872330
680.117790,-2545.963246,-6776.473603,-10432.706536
680.120402,-3062.812928,-842.273555,-8173.882002
680.123014,7618.747158,-8422.735552,-6910.471669
680.125626,3637.090352,8135.596840,-4823.930362
680.128238,7255.038123,2182.254211,-7599.604578
680.130850,2718.246474,-3101.098090,-7542.176835
680.133462,-5034.498750,1971.685822,-8767.302006
680.136074,1033.699363,-6833.901346,-8709.874264
680.138686,5053.641331,1397.408398,-6297.909083
680.141298,9552.147819,2507.678085,-10509.276859
680.143910,-8480.163294,4460.221326,-8882.157491
680.146522,-2660.818731,-5130.211654,-9513.862658
680.149133,8307.880067,3713.660675,-9743.573627
680.151745,401.994197,5455.635528,-8441.878133
680.154357,1205.982590,2909.672282,-8346.165229
680.156969,-5245.067139,-5551.348432,-8614.161360
680.159581,3751.945837,880.558717,-9111.868461
680.162193,1071.984525,4402.793584,-8461.020714
680.164805,-2431.107762,650.847747,-8556.733618
680.167415,-1282.552914,-4173.082614,-8997.012976
680.170025,306.281293,-7101.897477,-8977.870395
680.172635,-4785.645200,5800.201982,-8939.585234
680.175245,3560.520029,1761.117434,-9858.429112
680.177855,-3177.668413,-3273.381317,-7484.749093
680.180465,4517.649069,2909.672282,-8748.159426
680.183075,-1129.412267,-1856.830338,-9896.714274
680.185686,4345.365842,8307.880067,-8556.733618
680.188296,-497.707101,-2584.248408,-7829.315547
680.190906,-1588.834206,6297.909083,-8480.163294
680.193516,5934.200048,-6202.196179,-9647.860723
680.196126,-229.710970,12346.964616,-7446.463931
680.198736,-535.992262,1588.834206,-8863.014910
680.201346,287.138712,1339.980656,-8690.731683
680.203956,-248.853550,-1148.554848,-8901.300072
680.206566,-1014.556782,5379.065205,-8977.870395
680.209176,2143.969050,612.562586,-8729.016845
680.211786,-746.560651,-880.558717,-7886.743290
680.214396,-4173.082614,248.853550,-9054.440718
680.217006,6527.620053,2354.537438,-10202.995566
680.219616,421.136778,12691.531070,-8365.307810
680.222226,-440.279358,7312.465866,-7369.893608
680.224836,3158.525832,2411.965181,-8633.303941
680.227446,2737.389054,-727.418070,-9399.007173
680.230056,-1205.982590,6393.621987,-8748.159426
680.232666,1071.984525,-8059.026517,-8729.016845
680.235276,-957.129040,2163.111630,-7963.313613
680.237886,-2220.539373,2182.254211,-9188.438784
680.240496,2258.824534,-172.283227,-9360.722011
680.243106,-574.277424,1569.691626,-8614.161360
680.245716,-3273.381317,2641.676150,-7867.600709
680.248327,669.990328,459.421939,-9571.290400
680.250937,1014.556782,1665.404530,-9456.434915
680.253547,-2488.535504,9016.155557,-8748.159426
680.256157,3847.658741,-6202.196179,-8882.157491
680.258767,-976.271621,5532.205851,-7982.456194
680.261377,-1148.554848,-5379.065205,-9858.429112
680.263987,1129.412267,344.566454,-8556.733618
680.266597,1071.984525,3426.521963,-8116.454259
680.269207,-746.560651,5379.065205,-8614.161360
680.271815,1684.547110,-3560.520029,-9322.436850
680.274423,708.275490,-2813.959378,-8154.739421
680.277032,-2737.389054,3235.096155,-8499.305875
680.279640,2699.103893,-2297.109696,-9456.434915
680.282248,-1703.689691,1837.687757,-9111.868461
680.284857,-823.130974,-3426.521963,-9341.579430
680.287465,421.136778,-2526.820666,-8078.169098
680.290073,-153.140646,-3464.807125,-8595.018779
680.292682,-1780.260014,6661.618118,-9552.147819
680.295290,-248.853550,-4058.227130,-9954.142016
680.297898,-1588.834206,-4996.213589,-8020.741355
680.300507,-5359.922624,-3541.377448,-8595.018779
680.303115,3369.094221,6374.479406,-9705.288466
680.305723,1205.982590,-3617.947771,-9207.581365
680.308332,-4000.799387,1703.689691,-8212.167163
680.310940,1588.834206,-3158.525832,-8441.878133
680.313548,382.851616,-3637.090352,-8288.737486
680.316156,-2029.113565,3522.234867,-9647.860723
680.318765,3311.666478,-2067.398726,-9284.151688
680.321373,2871.387120,-3943.371645,-7676.174901
680.323981,-3483.949706,-5991.627790,-8805.587168
680.326590,-612.562586,3866.801322,-9322.436850
680.329198,4670.789715,-880.558717,-8920.442653
680.331806,-3924.229064,9973.284597,-7676.174901
680.334415,1531.406464,-535.992262,-9303.294269
680.337023,1205.982590,-4728.217458,-9341.579430
680.339631,-3924.229064,5321.637462,-8882.157491
680.342240,4115.654872,6929.614250,-8461.020714
680.344848,1148.554848,3445.664544,-8441.878133
680.347456,-2852.244539,-2813.959378,-9341.579430
680.350065,-765.703232,-401.994197,-9379.864592
680.352673,3254.238736,-1416.550979,-8001.598774
680.355280,-1225.125171,12289.536874,-7791.030386
680.357888,1914.258080,-2469.392923,-10241.280728
680.360495,3196.810994,5302.494882,-8748.159426
680.363103,-1110.269686,4536.791650,-7618.747158
680.365710,3637.090352,10432.706536,-7561.319416
680.368318,2699.103893,-1493.121302,-8958.727814
680.370925,440.279358,11581.261384,-8595.018779
680.373533,1684.547110,995.414202,-8384.450390
680.376140,3483.949706,-2297.109696,-7408.178770
680.378748,-2947.957443,-325.423874,-8901.300072
680.381355,2182.254211,6910.471669,-9590.432981
680.383963,2622.533570,-2890.529701,-8556.733618
680.386570,-3254.238736,2009.970984,-7676.174901
680.389178,210.568389,287.138712,-9092.725880
680.391785,957.129040,-823.130974,-9150.153622
680.394393,-2277.967115,10202.995566,-8863.014910
680.397000,-1512.263883,-8863.014910,-8958.727814
680.399608,3943.371645,4575.076811,-8097.311678
680.402215,-1033.699363,-2048.256146,-8652.446522
680.404822,-535.992262,6431.907149,-8575.876198
680.407430,3637.090352,-9360.722011,-9073.583299
680.410037,-1167.697429,8671.589102,-8403.592971
680.412645,287.138712,-3388.236802,-9245.866526
680.415252,1665.404530,-2928.814862,-8269.594906
680.417860,-1971.685822,3101.098090,-8441.878133
680.420467,-2182.254211,-555.134843,-9724.431046
680.423075,3177.668413,1091.127106,-9131.011042
680.425682,-727.418070,1952.543242,-8039.883936
680.428290,-2258.824534,8039.883936,-7944.171032
680.430897,4460.221326,-3369.094221,-9035.298138
680.433505,-2220.539373,4268.795518,-8882.157491
680.436112,-555.134843,-6661.618118,-9169.296203
680.438720,3541.377448,306.281293,-7235.895542
680.441327,-2277.967115,-2258.824534,-8001.598774
680.443935,823.130974,1818.545176,-9571.290400
680.446542,2756.531635,-1665.404530,-8633.303941
680.449150,650.847747,-1014.556782,-7427.321350
680.451757,-1569.691626,-4441.078746,-8709.874264
680.454365,5800.201982,4058.227130,-9207.581365
680.456972,-459.421939,1282.552914,-8882.157491
680.459577,-3637.090352,-2277.967115,-8882.157491
680.462183,2833.101958,-4019.941968,-8575.876198
680.464788,-880.558717,133.998066,-8288.737486
680.467393,1665.404530,14950.355605,-9226.723946
680.469999,1225.125171,2679.961312,-8327.022648
680.472604,267.996131,172.283227,-8001.598774
680.475209,-1665.404530,-7810.172966,-9552.147819
680.477815,3713.660675,10815.558152,-8173.882002
680.480420,1588.834206,3081.955509,-8135.596840
680.483025,-2756.531635,4134.797453,-8748.159426
680.485631,2928.814862,-7293.323285,-9494.720077
680.488236,363.709035,5168.496816,-8250.452325
680.490841,-459.421939,3771.088418,-8327.022648
680.493447,2086.541307,-1875.972918,-8288.737486
680.496052,459.421939,-2507.678085,-9207.581365
680.498657,1665.404530,7082.754896,-9054.440718
680.501263,4115.654872,9226.723946,-7657.032320
680.503868,1607.976787,5398.207786,-7312.465866
680.506473,-4364.508422,114.855485,-9207.581365
680.509079,2450.250342,-3273.381317,-9992.427178
680.511684,2890.529701,9360.722011,-7618.747158
680.514289,-248.853550,4670.789715,-7867.600709
680.516895,2239.681954,-1722.832272,-8575.876198
680.519500,-1741.974853,631.705166,-9418.149754
680.522105,-2775.674216,-823.130974,-9092.725880
680.524710,1875.972918,421.136778,-8518.448456
680.527316,1933.400661,4364.508422,-8154.739421
680.529921,-4575.076811,516.849682,-9341.579430
680.532526,1780.260014,3158.525832,-9245.866526
680.535132,172.283227,-9571.290400,-8690.731683
680.537737,-976.271621,7829.315547,-8346.165229
680.540342,2029.113565,-4881.358104,-8939.585234
680.542948,-440.279358,7925.028451,-8059.026517
680.545553,-3675.375514,-10662.417506,-9609.575562
680.548158,2143.969050,3464.807125,-8977.870395
680.550764,1167.697429,-1933.400661,-8231.309744
680.553369,-3790.230998,3254.238736,-8384.450390
680.555974,1071.984525,-3598.805190,-9303.294269
680.558580,612.562586,-2947.957443,-9245.866526
680.561185,-2124.826469,5072.783912,-9265.009107
680.563785,765.703232,-5781.059402,-8575.876198
680.566389,-1818.545176,-1856.830338,-8039.883936
680.568992,-3330.809059,-5781.059402,-10011.569758
680.571596,1282.552914,9360.722011,-9628.718142
680.574199,4594.219392,9265.009107,-7791.030386
680.576802,-4575.076811,784.845813,-7733.602643
680.579406,-2105.683888,-12882.956878,-9915.856854
680.582009,2297.109696,4517.649069,-9360.722011
680.584613,-1339.980656,7312.465866,-8614.161360
680.587216,727.418070,-4039.084549,-8269.594906
680.589820,-3062.812928,-7025.327154,-8499.305875
680.592423,344.566454,6604.190376,-9628.718142
680.595026,516.849682,2086.541307,-8920.442653
680.597630,4536.791650,2277.967115,-7963.313613
680.600233,-3196.810994,-7006.184573,-8614.161360
680.602837,-421.136778,8901.300072,-8824.729749
680.605440,3005.385186,-2852.244539,-8958.727814
680.608044,-2182.254211,6757.331022,-8595.018779
680.610647,-95.712904,-4134.797453,-9226.723946
680.613250,516.849682,976.271621,-8288.737486
680.615854,-3349.951640,842.273555,-8920.442653
680.618457,3024.527766,2354.537438,-9341.579430
680.621061,3598.805190,1473.978722,-8997.012976
680.623664,-1493.121302,2737.389054,-8767.302006
680.626267,-1359.123237,2679.961312,-8690.731683
680.628871,2450.250342,1646.261949,-8250.452325
680.631474,-1837.687757,5398.207786,-9169.296203
680.634078,2124.826469,3809.373579,-9724.431046
680.636681,2086.541307,1416.550979,-7771.887805
680.639285,-2469.392923,-2488.535504,-8078.169098
680.641888,1052.841944,2967.100024,-8863.014910
680.644491,3751.945837,-6106.483275,-9724.431046
680.647095,-918.843878,6795.616184,-8422.735552
680.649698,-1703.689691,1359.123237,-8346.165229
680.652302,3349.951640,2163.111630,-8116.454259
680.654905,-2143.969050,1856.830338,-9360.722011
680.657508,-1110.269686,-1301.695494,-9915.856854
680.660112,3273.381317,-1493.121302,-8250.452325
680.662715,-995.414202,6297.909083,-7905.885870
680.665319,-650.847747,-784.845813,-8805.587168
680.667920,1607.976787,401.994197,-9647.860723
680.670522,-3464.807125,-14490.933666,-9609.575562
680.673124,555.134843,6144.768437,-8173.882002
680.675725,3254.238736,0.000000,-7886.743290
680.678327,-784.845813,9379.864592,-8154.739421
680.680928,-2526.820666,-11389.835576,-10394.421374
680.683530,4709.074877,2584.248408,-8901.300072
680.686132,-1684.547110,1818.545176,-7905.885870
680.688733,-1684.547110,880.558717,-8173.882002
680.691335,2258.824534,-3617.947771,-9111.868461
680.693936,-2297.109696,-3158.525832,-9724.431046
680.696538,-1205.982590,-1588.834206,-8920.442653
680.699140,1607.976787,1167.697429,-7599.604578
680.701741,-440.279358,8805.587168,-8059.026517
680.704343,-957.129040,-3637.090352,-10394.421374
680.706944,3101.098090,2316.252277,-9265.009107
680.709546,-516.849682,-2679.961312,-7848.458128
680.712148,-2775.674216,2277.967115,-7542.176835
680.714749,3043.670347,-5436.492947,-9111.868461
680.717351,516.849682,1856.830338,-9705.288466
680.719953,-2679.961312,-3024.527766,-8997.012976
680.722554,-440.279358,-5359.922624,-7676.174901
680.725156,248.853550,593.420005,-8556.733618
680.727757,-1148.554848,6336.194245,-9781.858789
680.730359,-287.138712,-8767.302006,-10107.282662
680.732961,-3637.090352,-1339.980656,-8805.587168
680.735562,-1473.978722,-2067.398726,-8250.452325
680.738164,5876.772306,14050.654307,-8039.883936
680.740765,-3177.668413,2813.959378,-9360.722011
680.743367,-1416.550979,3866.801322,-9207.581365
680.745969,612.562586,-10777.272990,-8537.591037
680.748570,3675.375514,10336.993632,-6987.041992
680.751172,-267.996131,7676.174901,-8575.876198
680.753773,2928.814862,1627.119368,-9513.862658
680.756375,-1071.984525,-6795.616184,-9303.294269
680.758977,-478.564520,4900.500685,-7733.602643
680.761578,4651.647134,612.562586,-7657.032320
680.764180,-2105.683888,10260.423309,-8537.591037
680.766781,746.560651,1684.547110,-10566.704602
680.769383,1665.404530,631.705166,-8403.592971
680.771982,1607.976787,-995.414202,-7274.180704
680.774582,-1607.976787,6699.903280,-8327.022648
680.777181,3120.240670,-516.849682,-10068.997501
680.779780,210.568389,-3215.953574,-9533.005238
680.782379,-2699.103893,3732.803256,-8078.169098
680.784978,4000.799387,3215.953574,-7503.891674
680.787578,-1435.693560,4555.934230,-8671.589102
680.790177,-2775.674216,-3369.094221,-10719.845248
680.792776,1761.117434,-1665.404530,-9169.296203
680.795375,3656.232933,5283.352301,-7082.754896
680.797975,-3043.670347,5053.641331,-7925.028451
680.800574,1665.404530,-76.570323,-10107.282662
680.803173,-842.273555,-12634.103328,-9915.856854
680.805772,-172.283227,8499.305875,-8212.167163
680.808372,2641.676150,-593.420005,-7350.751027
680.810971,-861.416136,4862.215523,-7637.889739
680.813570,-1397.408398,-7006.184573,-10738.987829
680.816169,1512.263883,1014.556782,-9609.575562
680.818769,4019.941968,-382.851616,-7216.752962
680.821368,-4862.215523,6776.473603,-7235.895542
680.823967,1378.265818,-5934.200048,-10356.136213
680.826566,784.845813,-2660.818731,-10394.421374
680.829166,-2201.396792,440.279358,-8920.442653
680.831765,0.000000,-2373.680019,-7465.606512
680.834364,-4039.084549,-6317.051664,-8307.880067
680.836963,133.998066,5245.067139,-10585.847182
680.839562,95.712904,-5838.487144,-10279.565890
680.842162,2220.539373,937.986459,-7637.889739
680.844761,-4268.795518,3809.373579,-7350.751027
680.847360,1205.982590,267.996131,-9724.431046
680.849959,1454.836141,-4957.928427,-10413.563955
680.852559,-3713.660675,2450.250342,-8977.870395
680.855158,995.414202,-861.416136,-7637.889739
680.857757,957.129040,765.703232,-7714.460062
680.860356,-1569.691626,3369.094221,-9781.858789
680.862956,3196.810994,-3407.379382,-10088.140082
680.865555,-823.130974,-6317.051664,-8212.167163
680.868154,-3732.803256,10202.995566,-6910.471669
680.870753,516.849682,-3235.096155,-9322.436850
680.873353,2488.535504,2182.254211,-9992.427178
680.875950,-2794.816797,1646.261949,-9686.145885
680.878547,-516.849682,-593.420005,-7561.319416
680.881144,708.275490,-267.996131,-7523.034254
680.883741,-1454.836141,7255.038123,-9647.860723
680.886338,2660.818731,6068.198114,-10432.706536
680.888936,-19.142581,-6508.477472,-8863.014910
680.891533,-3790.230998,4575.076811,-6929.614250
680.894130,1301.695494,-2182.254211,-9188.438784
680.896727,3024.527766,5857.629725,-9839.286531
680.899324,-823.130974,5915.057467,-9781.858789
680.901921,306.281293,4460.221326,-7599.604578
680.904519,5225.924558,4096.512291,-6757.331022
680.907116,1244.267752,8824.729749,-8269.594906
680.909713,2220.539373,-2258.824534,-10509.276859
680.912310,3273.381317,1780.260014,-8805.587168
680.914907,-3215.953574,4613.361973,-7044.469734
680.917505,669.990328,4421.936165,-8767.302006
680.920102,2335.394858,-7255.038123,-10183.852986
680.922699,-1550.549045,4249.652938,-9379.864592
680.925296,535.992262,1875.972918,-8212.167163
680.927893,1071.984525,516.849682,-7235.895542
680.930490,-2660.818731,7331.608446,-8805.587168
680.933088,1684.547110,-8116.454259,-11006.983960
680.935685,2163.111630,3675.375514,-8882.157491
680.938282,-2450.250342,-2565.105827,-7829.315547
680.940879,-957.129040,7886.743290,-7580.461997
680.943476,2335.394858,-14012.369146,-10604.989763
680.946073,-861.416136,7676.174901,-9552.147819
680.948671,-172.283227,-1550.549045,-8346.165229
680.951268,1512.263883,-4134.797453,-7159.325219
680.953865,-2909.672282,2105.683888,-8595.018779
680.956462,2679.961312,3330.809059,-10298.708470
680.959059,1282.552914,-1110.269686,-9054.440718
680.961656,-3560.520029,-2565.105827,-7771.887805
680.964254,-861.416136,-4823.930362,-7829.315547
680.966851,3158.525832,-7810.172966,-10011.569758
680.969448,-4000.799387,-5627.918755,-9801.001370
680.972045,-535.992262,-631.705166,-8748.159426
680.974642,1780.260014,2067.398726,-7006.184573
680.977240,-3943.371645,-306.281293,-8422.735552
680.979808,38.285162,-4670.789715,-10777.272990
680.982377,3962.514226,-1339.980656,-9169.296203
680.984946,-976.271621,8805.587168,-6987.041992
680.987515,631.705166,248.853550,-7733.602643
680.990083,1263.410333,-6412.764568,-10030.712339
680.992652,-708.275490,-153.140646,-9858.429112
680.995221,-708.275490,-2545.963246,-8595.018779
680.997790,4766.502619,12289.536874,-6738.188442
681.000359,-3254.238736,-3503.092286,-8384.450390
681.002927,-1971.685822,1799.402595,-10681.560086
681.005496,2967.100024,-7408.178770,-10451.849117
681.008065,-3369.094221,10566.704602,-7044.469734
681.010634,-1320.838075,-3847.658741,-8020.741355
681.013203,2431.107762,1052.841944,-9265.009107
681.015771,-344.566454,-995.414202,-10011.569758
681.018340,19.142581,6642.475538,-8250.452325
681.020909,2871.387120,-229.710970,-7159.325219
681.023478,-1684.547110,1722.832272,-7944.171032
681.026047,95.712904,7216.752962,-10049.854920
681.028615,4058.227130,-5130.211654,-9801.001370
681.031184,-3330.809059,5111.069074,-7293.323285
681.033753,1933.400661,5589.633594,-7465.606512
681.036322,4460.221326,4249.652938,-8422.735552
681.038890,-2411.965181,-650.847747,-9801.001370
681.041459,-2469.392923,2354.537438,-8882.157491
681.044028,3809.373579,765.703232,-7274.180704
681.046597,918.843878,7255.038123,-7791.030386
681.049166,-1856.830338,-229.710970,-10336.993632
681.051734,3330.809059,-3369.094221,-9647.860723
681.054303,287.138712,7695.317482,-7159.325219
681.056872,1933.400661,7771.887805,-7121.040058
681.059441,4096.512291,1014.556782,-8920.442653
681.062010,-5876.772306,-5838.487144,-9724.431046
681.064578,-4670.789715,-5666.203917,-9513.862658
681.067147,2048.256146,-957.129040,-7465.606512
681.069716,-57.427742,11542.976222,-7733.602643
681.072285,-3254.238736,-6680.760699,-11026.126541
681.074854,-363.709035,-8461.020714,-10202.995566
681.077422,-114.855485,-727.418070,-7293.323285
681.079991,-210.568389,11236.694930,-7178.467800
681.082537,1397.408398,-8461.020714,-9781.858789
681.085082,-2316.252277,880.558717,-10068.997501
681.087628,-2009.970984,-1397.408398,-8882.157491
681.090173,5685.346498,9609.575562,-6699.903280
681.092719,6125.625856,19582.860158,-7140.182638
681.095265,-440.279358,7752.745224,-9743.573627
681.097810,2335.394858,-10815.558152,-9590.432981
681.100356,842.273555,-1052.841944,-6987.041992
681.102901,765.703232,10126.425243,-6948.756830
681.105447,5493.920690,-2565.105827,-9418.149754
681.107992,-2871.387120,-5149.354235,-9820.143950
681.110538,1550.549045,3522.234867,-8690.731683
681.113083,1875.972918,2967.100024,-7542.176835
681.115629,-248.853550,-669.990328,-8365.307810
681.118175,-2431.107762,2794.816797,-10509.276859
681.120720,2507.678085,-7044.469734,-9820.143950
681.123266,0.000000,12825.529136,-6929.614250
681.125811,-3062.812928,-669.990328,-8020.741355
681.128357,3062.812928,19.142581,-9686.145885
681.130902,-1588.834206,-4498.506488,-10509.276859
681.133448,-1761.117434,7618.747158,-8346.165229
681.135994,2526.820666,-3235.096155,-7561.319416
681.138539,459.421939,1493.121302,-8863.014910
681.141085,-1129.412267,4728.217458,-10643.274925
681.143630,2086.541307,2565.105827,-8920.442653
681.146176,-937.986459,-1091.127106,-7140.182638
681.148721,-2086.541307,1895.115499,-8212.167163
681.151267,1933.400661,-555.134843,-10068.997501
681.153813,-1990.828403,-3579.662610,-10202.995566
681.156358,-5876.772306,861.416136,-8748.159426
681.158904,2699.103893,-4211.367776,-7886.743290
681.161449,1646.261949,2622.533570,-8441.878133
681.163995,-574.277424,1837.687757,-10375.278794
681.166540,2239.681954,3694.518094,-8824.729749
681.169086,478.564520,612.562586,-7006.184573
681.171631,-2756.531635,-593.420005,-8633.303941
681.174177,2584.248408,-191.425808,-10030.712339
681.176723,593.420005,1665.404530,-9513.862658
681.179268,-5091.926493,3349.951640,-8365.307810
681.181814,3560.520029,4307.080680,-7676.174901
681.184365,1205.982590,-14395.220762,-9437.292334
681.186917,-880.558717,8001.598774,-9801.001370
681.189468,2201.396792,-669.990328,-8748.159426
681.192020,-191.425808,2890.529701,-6585.047795
681.194572,-3024.527766,-5111.069074,-9284.151688
681.197123,3694.518094,3905.086483,-9973.284597
681.199675,995.414202,-3101.098090,-8920.442653
681.202226,-3426.521963,-2469.392923,-7886.743290
681.204778,3196.810994,1722.832272,-7733.602643
681.207329,2048.256146,1569.691626,-8748.159426
681.209881,-1339.980656,1148.554848,-9552.147819
681.212432,401.994197,-2373.680019,-8537.591037
681.214984,1837.687757,-861.416136,-7025.327154
681.217536,803.988394,5838.487144,-8767.302006
681.220087,287.138712,382.851616,-10317.851051
681.222639,-287.138712,-8039.883936,-9207.581365
681.225190,-2392.822600,3388.236802,-7810.172966
681.227742,2641.676150,1244.267752,-8059.026517
681.230293,1339.980656,-229.710970,-9131.011042
681.232845,-1761.117434,3675.375514,-9207.581365
681.235397,-995.414202,38.285162,-8403.592971
681.237948,2584.248408,-842.273555,-7274.180704
681.240500,574.277424,3905.086483,-9111.868461
681.243051,191.425808,-8480.163294,-10241.280728
681.245603,382.851616,2201.396792,-8001.598774
681.248154,-19.142581,7293.323285,-7561.319416
681.250706,1780.260014,4996.213589,-8231.309744
681.253257,459.421939,-2277.967115,-9877.571693
681.255809,-2565.105827,-976.271621,-9877.571693
681.258361,-2258.824534,-363.709035,-8116.454259
681.260912,3560.520029,4919.643266,-7905.885870
681.263464,-1684.547110,6049.055533,-9571.290400
681.266015,-1416.550979,-4785.645200,-10375.278794
681.268567,708.275490,-765.703232,-7982.456194
681.271118,-382.851616,6795.616184,-7446.463931
681.273670,1684.547110,8365.307810,-8805.587168
681.276221,899.701298,-2182.254211,-9877.571693
681.278773,-2029.113565,2526.820666,-9111.868461
681.281325,3905.086483,3311.666478,-7637.889739
681.283876,3790.230998,3101.098090,-7886.743290
681.286433,-689.132909,2029.113565,-9552.147819
681.288990,-363.709035,114.855485,-10011.569758
681.291547,2565.105827,2871.387120,-7657.032320
681.294104,-2794.816797,0.000000,-7695.317482
681.296661,-382.851616,-1473.978722,-9781.858789
681.299218,2029.113565,-784.845813,-9781.858789
681.301775,-2545.963246,3369.094221,-8365.307810
681.304331,440.279358,6987.041992,-7733.602643
681.306888,1856.830338,-12787.243974,-9322.436850
681.309445,-784.845813,535.992262,-9552.147819
681.312002,248.853550,1282.552914,-9245.866526
681.314559,3330.809059,6565.905214,-6757.331022
681.317116,-2182.254211,-6470.192310,-8480.163294
681.319673,957.129040,4077.369710,-9934.999435
681.322230,2584.248408,-5302.494882,-9092.725880
681.324787,-2048.256146,1435.693560,-7791.030386
681.327344,669.990328,1186.840010,-7867.600709
681.329900,3177.668413,-2029.113565,-9858.429112
681.332457,-593.420005,-1914.258080,-9590.432981
681.335014,-2201.396792,2201.396792,-8461.020714
681.337571,3101.098090,-708.275490,-7446.463931
681.340128,-2067.398726,-5034.498750,-9035.298138
681.342685,-4173.082614,-3369.094221,-10547.562021
681.345242,2029.113565,-5111.069074,-9360.722011
681.347799,-2909.672282,3694.518094,-7657.032320
681.350356,-1933.400661,-2277.967115,-8767.302006
681.352913,-459.421939,-9341.579430,-9820.143950
681.355470,459.421939,-593.420005,-9322.436850
681.358026,-2316.252277,5264.209720,-8059.026517
681.360583,976.271621,-4287.938099,-8480.163294
681.363140,-3062.812928,-3541.377448,-9724.431046
681.365697,-2029.113565,-3369.094221,-9896.714274
681.368254,6431.907149,14261.222696,-7886.743290
681.370811,-1684.547110,7025.327154,-7465.606512
681.373368,-2660.818731,-1952.543242,-8977.870395
681.375925,995.414202,-14816.357539,-10451.849117
681.378482,-19.142581,14471.791085,-8327.022648
681.381039,-2124.826469,4881.358104,-7503.891674
681.383596,3235.096155,3158.525832,-8518.448456
681.386152,-1225.125171,-6278.766502,-9705.288466
681.388689,-1091.127106,9207.581365,-9054.440718
681.391226,3235.096155,-689.132909,-7963.313613
681.393763,-3637.090352,1110.269686,-7944.171032
681.396300,-1780.260014,-4804.787781,-10030.712339
681.398837,5627.918755,6604.190376,-9169.296203
681.401374,191.425808,10719.845248,-7963.313613
681.403911,-1129.412267,9820.143950,-7580.461997
681.406448,-995.414202,-6853.043926,-9705.288466
681.408985,-401.994197,-1071.984525,-9781.858789
681.411522,-2048.256146,7714.460062,-8652.446522
681.414059,1397.408398,-5149.354235,-8327.022648
681.416596,-3388.236802,-19.142581,-8556.733618
681.419132,-2411.965181,555.134843,-10030.712339
681.421669,2316.252277,2086.541307,-9092.725880
681.424206,-2220.539373,7063.612315,-7963.313613
681.426743,-1186.840010,-172.283227,-9054.440718
681.429280,2813.959378,-19.142581,-9456.434915
681.431817,1225.125171,-2163.111630,-8882.157491
681.434354,-1914.258080,4632.504554,-7886.743290
681.436891,2871.387120,-3464.807125,-8480.163294
681.439428,727.418070,2411.965181,-8652.446522
681.441965,-2124.826469,-3732.803256,-9552.147819
681.444502,2469.392923,-6163.911018,-8671.589102
681.447039,803.988394,6106.483275,-7733.602643
681.449576,-1818.545176,401.994197,-8863.014910
681.452112,2277.967115,-363.709035,-9781.858789
681.454649,823.130974,-114.855485,-8346.165229
681.457186,-2928.814862,1761.117434,-7886.743290
681.459723,4957.928427,1263.410333,-8633.303941
681.462260,133.998066,535.992262,-8767.302006
681.464797,-765.703232,-669.990328,-8939.585234
681.467334,3215.953574,-2507.678085,-7905.885870
681.469871,708.275490,3464.807125,-7752.745224
681.472408,-3081.955509,-3235.096155,-9265.009107
681.474945,3215.953574,-3235.096155,-9705.288466
681.477482,1148.554848,-1493.121302,-8020.741355
681.480019,-2660.818731,-612.562586,-8116.454259
681.482556,267.996131,-4077.369710,-9839.286531
681.485092,-516.849682,-2507.678085,-9284.151688
681.487629,-535.992262,6661.618118,-8805.587168
681.490174,2545.963246,5436.492947,-7867.600709
681.492719,1263.410333,3828.516160,-8288.737486
681.495263,-3847.658741,-8997.012976,-10164.710405
681.497808,3962.514226,5819.344563,-8843.872330
681.500353,-363.709035,650.847747,-7484.749093
681.502897,-1263.410333,9169.296203,-8499.305875
681.505442,1818.545176,-5379.065205,-10049.854920
681.507986,2239.681954,3483.949706,-8441.878133
681.510531,-1895.115499,114.855485,-7848.458128
681.513076,-631.705166,535.992262,-8614.161360
681.515620,631.705166,-7408.178770,-9954.142016
681.518165,-4134.797453,3656.232933,-9571.290400
681.520710,114.855485,-3943.371645,-9016.155557
681.523254,-287.138712,3158.525832,-7676.174901
681.525799,-1703.689691,3369.094221,-8824.729749
681.528343,3522.234867,2182.254211,-9705.288466
681.530888,4307.080680,4039.084549,-7982.456194
681.533433,-2009.970984,2603.390989,-7542.176835
681.535977,2316.252277,574.277424,-8958.727814
681.538522,5455.635528,3081.955509,-8690.731683
681.541067,-1033.699363,5551.348432,-8422.735552
681.543611,2584.248408,1799.402595,-8556.733618
681.546156,-2488.535504,-12882.956878,-8556.733618
681.548701,-689.132909,803.988394,-9418.149754
681.551245,76.570323,746.560651,-9418.149754
681.553790,4498.506488,11160.124606,-7714.460062
681.556334,-4862.215523,-6393.621987,-8805.587168
681.558879,650.847747,-1282.552914,-9743.573627
681.561424,1856.830338,-4747.360038,-9054.440718
681.563968,-3024.527766,11140.982026,-7963.313613
681.566513,784.845813,-8575.876198,-9360.722011
681.569058,-287.138712,593.420005,-8748.159426
681.571602,-1052.841944,382.851616,-9111.868461
681.574147,-995.414202,6987.041992,-8537.591037
681.576691,2967.100024,899.701298,-8327.022648
681.579236,-3254.238736,210.568389,-9092.725880
681.581781,-1703.689691,-6546.762634,-9915.856854
681.584325,3522.234867,267.996131,-8327.022648
681.586870,-3349.951640,5245.067139,-7771.887805
681.589415,-842.273555,-8403.592971,-9533.005238
681.591966,1301.695494,-631.705166,-9284.151688
681.594517,-2182.254211,5111.069074,-8633.303941
681.597068,172.283227,918.843878,-8633.303941
681.599619,325.423874,-4670.789715,-9169.296203
681.602170,-3847.658741,-4115.654872,-9226.723946
681.604721,3081.955509,11638.689126,-9150.153622
681.607271,3790.230998,7044.469734,-7561.319416
681.609822,-2201.396792,2545.963246,-7982.456194
681.612373,-1741.974853,-14452.648504,-10260.423309
681.614924,4517.649069,9571.290400,-8250.452325
681.617475,-1799.402595,823.130974,-7791.030386
681.620026,1148.554848,6546.762634,-8729.016845
681.622577,1741.974853,-7944.171032,-9724.431046
681.625127,-2775.674216,5111.069074,-8575.876198
681.627678,535.992262,19.142581,-8709.874264
681.630229,2277.967115,976.271621,-8154.739421
681.632780,1780.260014,6623.332957,-9111.868461
681.635331,4421.936165,15964.912387,-8863.014910
681.637882,2679.961312,-1799.402595,-7944.171032
681.640433,-918.843878,287.138712,-7752.745224
681.642983,2124.826469,6604.190376,-8652.446522
681.645534,6259.623922,1703.689691,-8863.014910
681.648085,-535.992262,2756.531635,-8212.167163
681.650636,-2392.822600,114.855485,-8575.876198
681.653187,1665.404530,-1895.115499,-8920.442653
681.655738,-1244.267752,4728.217458,-8997.012976
681.658289,325.423874,7963.313613,-8843.872330
681.660839,3943.371645,-1244.267752,-8461.020714
681.663390,-5666.203917,-3005.385186,-8135.596840
681.665941,-1205.982590,-7159.325219,-10222.138147
681.668492,2048.256146,153.140646,-9016.155557
681.671043,-650.847747,4345.365842,-8116.454259
681.673594,-3847.658741,-535.992262,-8882.157491
681.676145,1933.400661,-5551.348432,-9513.862658
681.678695,-1244.267752,-4900.500685,-8652.446522
681.681246,-669.990328,8499.305875,-8480.163294
681.683797,2354.537438,-5972.485210,-8901.300072
681.686348,-3464.807125,153.140646,-8824.729749
681.688899,-803.988394,-7197.610381,-9973.284597
681.691450,2545.963246,2603.390989,-8059.026517
681.694006,478.564520,-3369.094221,-8671.589102
681.696562,-2488.535504,7121.040058,-9494.720077
681.699119,19.142581,-6010.770371,-9686.145885
681.701675,-1761.117434,-3522.234867,-8441.878133
681.704232,-2067.398726,1761.117434,-8537.591037
681.706788,5321.637462,5934.200048,-8748.159426
681.709344,-3235.096155,-1703.689691,-9092.725880
681.711901,-2641.676150,-229.710970,-9131.011042
681.714457,3866.801322,-4747.360038,-8441.878133
681.717014,-1875.972918,-2297.109696,-8614.161360
681.719570,-1780.260014,12232.109131,-8575.876198
681.722126,1359.123237,-3866.801322,-8901.300072
681.724683,-612.562586,3388.236802,-8001.598774
681.727239,-1473.978722,172.283227,-9379.864592
681.729795,2392.822600,3254.238736,-8843.872330
681.732352,727.418070,1435.693560,-8346.165229
681.734908,-2603.390989,6125.625856,-8575.876198
681.737465,3579.662610,-478.564520,-8939.585234
681.740021,535.992262,1588.834206,-8633.303941
681.742577,-2105.683888,5455.635528,-8882.157491
681.745134,1282.552914,2297.109696,-8614.161360
681.747690,-976.271621,-3732.803256,-8824.729749
681.750246,-1665.404530,3292.523898,-9647.860723
681.752803,2967.100024,4881.358104,-8384.450390
681.755359,1569.691626,2086.541307,-7580.461997
681.757916,-3445.664544,2622.533570,-8748.159426
681.760472,4096.512291,325.423874,-9303.294269
681.763028,4307.080680,9686.145885,-8365.307810
681.765585,-4077.369710,2507.678085,-8231.309744
681.768141,229.710970,267.996131,-8997.012976
681.770698,3426.521963,1416.550979,-8652.446522
681.773254,-861.416136,4709.074877,-8633.303941
681.775815,1244.267752,4058.227130,-8729.016845
681.778376,-2603.390989,-14242.080115,-8690.731683
681.780938,-2143.969050,401.994197,-9437.292334
681.783499,2756.531635,-191.425808,-9399.007173
681.786060,937.986459,12136.396227,-7523.034254
681.788621,-3866.801322,-10930.413637,-9379.864592
681.791182,2373.680019,4441.078746,-8882.157491
681.793744,2909.672282,-5895.914886,-9150.153622
681.796305,-1435.693560,11102.696864,-7867.600709
681.798866,325.423874,-7389.036189,-9360.722011
681.801427,1320.838075,937.986459,-8614.161360
681.803989,-555.134843,-210.568389,-9150.153622
681.806550,2813.959378,4153.940034,-8020.741355
681.809111,899.701298,-2545.963246,-8078.169098
681.811672,-669.990328,1856.830338,-9322.436850
681.814234,1071.984525,-2852.244539,-9667.003304
681.816795,248.853550,-3464.807125,-8805.587168
681.819356,-5130.211654,-497.707101,-8441.878133
681.821917,229.710970,4000.799387,-9437.292334
681.824478,1569.691626,1301.695494,-9073.583299
681.827040,-2258.824534,-248.853550,-8690.731683
681.829601,478.564520,1588.834206,-8614.161360
681.832162,1473.978722,-8250.452325,-8709.874264
681.834723,-3349.951640,10547.562021,-8614.161360
681.837285,2143.969050,-5111.069074,-9552.147819
681.839846,708.275490,7159.325219,-8193.024582
681.842407,-1186.840010,-4402.793584,-9169.296203
681.844968,344.566454,10911.271056,-8403.592971
681.847529,3349.951640,-2411.965181,-8767.302006
681.850091,-1205.982590,8039.883936,-8135.596840
681.852652,19.142581,803.988394,-9054.440718
681.855213,2794.816797,0.000000,-8633.303941
681.857774,-2890.529701,3866.801322,-8786.444587
681.860336,861.416136,-746.560651,-9150.153622
681.862897,-1282.552914,-2718.246474,-8882.157491
681.865458,-1148.554848,-899.701298,-9016.155557
681.868019,-612.562586,7580.461997,-8422.735552
681.870581,5302.494882,1435.693560,-8059.026517
681.873142,-3560.520029,2928.814862,-8537.591037
681.875703,-2622.533570,-3713.660675,-10088.140082
681.878245,3024.527766,-38.285162,-8939.585234
681.880788,-2890.529701,2316.252277,-8269.594906
681.883330,-1167.697429,38.285162,-8958.727814
681.885872,210.568389,-38.285162,-9188.438784
681.888415,-1933.400661,7657.032320,-8786.444587
681.890957,-861.416136,-1741.974853,-8977.870395
681.893499,3349.951640,3062.812928,-8307.880067
681.896042,-2277.967115,-6872.186507,-9437.292334
681.898584,-2545.963246,-1588.834206,-9207.581365
681.901126,3713.660675,1607.976787,-8384.450390
681.903669,-1627.119368,-1033.699363,-8346.165229
681.906211,-593.420005,-382.851616,-9092.725880
681.908753,1052.841944,-8039.883936,-8767.302006
681.911296,-937.986459,7867.600709,-8250.452325
681.913838,-363.709035,248.853550,-9016.155557
681.916380,1493.121302,-650.847747,-9437.292334
681.918922,-2124.826469,-7101.897477,-8805.587168
681.921465,-2488.535504,5742.774240,-8250.452325
681.924007,4594.219392,267.996131,-8652.446522
681.926549,-1091.127106,3809.373579,-8690.731683
681.929092,-2009.970984,-6125.625856,-9762.716208
681.931634,3273.381317,1761.117434,-7925.028451
681.934176,-2660.818731,-440.279358,-8020.741355
681.936719,267.996131,1569.691626,-9437.292334
681.939261,957.129040,-5723.631659,-9322.436850
681.941803,669.990328,-4115.654872,-8250.452325
681.944346,-4287.938099,-2622.533570,-8748.159426
681.946888,2239.681954,-918.843878,-8901.300072
681.949430,1454.836141,6738.188442,-8824.729749
681.951973,-1205.982590,7159.325219,-8441.878133
681.954515,3771.088418,1741.974853,-8269.594906
681.957057,-2067.398726,-9724.431046,-8786.444587
681.959600,-421.136778,11791.829773,-8729.016845
681.962142,708.275490,-2105.683888,-9092.725880
681.964684,1914.258080,6431.907149,-8441.878133
681.967227,-3196.810994,-440.279358,-8997.012976
681.969769,2411.965181,5436.492947,-8346.165229
681.972311,957.129040,-3905.086483,-8384.450390
681.974854,-5417.350366,2584.248408,-8786.444587
681.977396,4862.215523,650.847747,-9609.575562
681.979945,-133.998066,8863.014910,-8269.594906
681.982494,-4345.365842,287.138712,-8709.874264
681.985043,2584.248408,-3637.090352,-8767.302006
681.987592,-287.138712,-4900.500685,-9456.434915
681.990141,-2450.250342,3847.658741,-9073.583299
681.992690,287.138712,-306.281293,-8575.876198
681.995239,306.281293,-2124.826469,-8690.731683
681.997788,-5072.783912,5034.498750,-9265.009107
682.000337,4517.649069,4230.510357,-9016.155557
682.002886,1799.402595,3771.088418,-8231.309744
682.005435,-5953.342629,-3254.238736,-8480.163294
682.007984,1914.258080,-7963.313613,-9705.288466
682.010533,267.996131,-3713.660675,-8709.874264
682.013082,-1914.258080,4689.932296,-8614.161360
682.015631,421.136778,-3273.381317,-8958.727814
682.018180,1780.260014,-2431.107762,-8767.302006
682.020729,-4900.500685,-2354.537438,-8863.014910
682.023278,2277.967115,3617.947771,-8729.016845
682.025827,937.986459,-5245.067139,-8977.870395
682.028376,-4862.215523,4862.215523,-9150.153622
682.030925,248.853550,-14816.357539,-9590.432981
682.033474,325.423874,8767.302006,-7810.172966
682.036023,-1416.550979,3426.521963,-8920.442653
682.038572,631.705166,4938.785846,-9379.864592
682.041121,-1148.554848,-11294.122672,-9494.720077
682.043670,-3637.090352,2354.537438,-8250.452325
682.046219,3062.812928,2411.965181,-8422.735552
682.048768,2660.818731,3215.953574,-8786.444587
682.051317,-6163.911018,-2967.100024,-9303.294269
682.053866,3751.945837,-3866.801322,-8805.587168
682.056415,937.986459,-4307.080680,-8269.594906
682.058964,-5532.205851,2297.109696,-8901.300072
682.061513,-1416.550979,-5608.776174,-9705.288466
682.064062,1837.687757,2277.967115,-8384.450390
682.066611,-1837.687757,3885.943902,-8690.731683
682.069160,727.418070,2201.396792,-8767.302006
682.071709,1627.119368,1818.545176,-8882.157491
682.074258,-4843.072942,918.843878,-9092.725880
682.076807,2813.959378,6508.477472,-9150.153622
682.079356,1875.972918,-2660.818731,-8556.733618
682.081911,-3541.377448,8039.883936,-7944.171032
682.084466,880.558717,3369.094221,-9111.868461
682.087021,1588.834206,-593.420005,-8882.157491
682.089576,-3369.094221,-4651.647134,-9341.579430
682.092131,-344.566454,8039.883936,-8824.729749
682.094686,4345.365842,1761.117434,-8307.880067
682.097241,-2967.100024,7389.036189,-8327.022648
682.099796,1435.693560,1780.260014,-9724.431046
682.102351,2277.967115,-401.994197,-8518.448456
682.104905,-2545.963246,5647.061336,-8020.741355
682.107460,2220.539373,7925.028451,-8690.731683
682.110015,3407.379382,-2373.680019,-8863.014910
682.112570,-2067.398726,6355.336826,-8614.161360
682.115125,-3005.385186,-11925.827838,-9035.298138
682.117680,4804.787781,-172.283227,-8403.592971
682.120235,-1473.978722,1665.404530,-8461.020714
682.122790,593.420005,6967.899411,-8614.161360
682.125345,1416.550979,-11983.255581,-9303.294269
682.127900,-3254.238736,3905.086483,-8518.448456
682.130454,95.712904,-7063.612315,-9265.009107
682.133009,1741.974853,976.271621,-8575.876198
682.135564,-2909.672282,-4536.791650,-9188.438784
682.138119,-631.705166,3732.803256,-9169.296203
682.140674,3924.229064,-2029.113565,-8977.870395
682.143229,153.140646,12117.253646,-7599.604578
682.145784,-1359.123237,-2182.254211,-8805.587168
682.148339,2201.396792,-7101.897477,-8977.870395
682.150894,-1761.117434,2890.529701,-8652.446522
682.153449,4134.797453,4383.651003,-8518.448456
682.156003,267.996131,-2201.396792,-7963.313613
682.158558,-1703.689691,-1607.976787,-8863.014910
682.161113,-2813.959378,-2182.254211,-9667.003304
682.163668,3062.812928,-7963.313613,-8863.014910
682.166223,-1225.125171,3254.238736,-8212.167163
682.168778,-3751.945837,-3924.229064,-9322.436850
682.171333,5685.346498,7235.895542,-9188.438784
682.173888,-899.701298,5359.922624,-8193.024582
682.176443,-57.427742,5704.489078,-8499.305875
682.178998,1493.121302,-15294.922059,-9092.725880
682.181552,-765.703232,7676.174901,-8288.737486
682.184090,-3158.525832,-3177.668413,-9418.149754
682.186628,3713.660675,7159.325219,-8939.585234
682.189166,-1607.976787,-3503.092286,-8786.444587
682.191704,-3292.523898,5895.914886,-8575.876198
682.194242,1359.123237,-5934.200048,-9169.296203
682.196780,-3713.660675,2220.539373,-8786.444587
682.199318,-2086.541307,-1473.978722,-10088.140082
682.201856,3407.379382,2871.387120,-8748.159426
682.204393,995.414202,19.142581,-8059.026517
682.206931,-1301.695494,7561.319416,-8537.591037
682.209469,3866.801322,1952.543242,-9360.722011
682.212007,631.705166,1167.697429,-8709.874264
682.214545,-2029.113565,5111.069074,-8518.448456
682.217083,5034.498750,3062.812928,-8422.735552
682.219621,-593.420005,172.283227,-8537.591037
682.222159,-1780.260014,4192.225195,-9360.722011
682.224696,1875.972918,-12059.825904,-8729.016845
682.227234,287.138712,5302.494882,-7944.171032
682.229772,-1378.265818,5685.346498,-8882.157491
682.232310,3617.947771,10126.425243,-8461.020714
682.234848,-1148.554848,-12270.394293,-9131.011042
682.237386,-2718.246474,4900.500685,-8786.444587
682.239924,2163.111630,-7178.467800,-8633.303941
682.242462,-459.421939,3388.236802,-8078.169098
682.245000,-2756.531635,-2392.822600,-9801.001370
682.247537,1378.265818,-3713.660675,-9399.007173
682.250075,-497.707101,-229.710970,-8633.303941
682.252613,1301.695494,9571.290400,-8269.594906
682.255151,2871.387120,3349.951640,-8997.012976
682.257689,-440.279358,-3426.521963,-9169.296203
682.260227,-5072.783912,-4460.221326,-9647.860723
682.262765,3541.377448,-2009.970984,-8863.014910
682.265303,2545.963246,7580.461997,-7503.891674
682.267841,-2775.674216,2067.398726,-9226.723946
682.270378,1148.554848,-4383.651003,-9456.434915
682.272916,957.129040,-5570.491013,-8135.596840
682.275454,-976.271621,1435.693560,-8307.880067
682.277992,1148.554848,8135.596840,-8537.591037
682.280530,612.562586,-3273.381317,-9188.438784
682.283068,-4230.510357,3732.803256,-8901.300072
682.285613,1569.691626,2584.248408,-9035.298138
682.288159,1263.410333,-19.142581,-8231.309744
682.290704,-3771.088418,7676.174901,-8997.012976
682.293250,-727.418070,-4077.369710,-9552.147819
682.295795,2603.390989,5493.920690,-8671.589102
682.298341,-2718.246474,1148.554848,-8652.446522
682.300887,2297.109696,5627.918755,-8078.169098
682.303432,3024.527766,-3349.951640,-8786.444587
682.305978,-631.705166,10968.698798,-8977.870395
682.308523,861.416136,-3024.527766,-9207.581365
682.311069,1473.978722,2794.816797,-7695.317482
682.313614,-1569.691626,1627.119368,-8480.163294
682.316160,2086.541307,5551.348432,-8690.731683
682.318705,1091.127106,-7542.176835,-9245.866526
682.321251,-2526.820666,3503.092286,-8882.157491
682.323796,1473.978722,937.986459,-8499.305875
682.326342,2603.390989,4383.651003,-8537.591037
682.328887,-1799.402595,5627.918755,-9245.866526
682.331433,593.420005,-2526.820666,-9552.147819
682.333978,1148.554848,19.142581,-7867.600709
682.336524,-2258.824534,-4000.799387,-8748.159426
682.339069,-1205.982590,-899.701298,-9131.011042
682.341615,3369.094221,2335.394858,-8690.731683
682.344160,-3043.670347,727.418070,-8767.302006
682.346706,2794.816797,-976.271621,-9035.298138
682.349251,1014.556782,-1722.832272,-8250.452325
682.351797,-306.281293,2833.101958,-8882.157491
682.354342,-2258.824534,-1493.121302,-9533.005238
682.356888,4479.363907,459.421939,-8729.016845
682.359433,-172.283227,3560.520029,-7925.028451
682.361979,-2622.533570,-4307.080680,-8499.305875
682.364525,1741.974853,-8346.165229,-9303.294269
682.367070,-1971.685822,2813.959378,-9092.725880
682.369616,1990.828403,535.992262,-8882.157491
682.372161,-229.710970,76.570323,-7905.885870
682.374707,-1895.115499,-1531.406464,-8767.302006
682.377252,-1818.545176,421.136778,-9762.716208
682.379798,1799.402595,-7829.315547,-9245.866526
682.382343,-1856.830338,1665.404530,-8173.882002
682.384889,-2871.387120,-2354.537438,-8595.018779
682.387419,5838.487144,5742.774240,-9226.723946
682.389950,-1454.836141,7810.172966,-8614.161360
682.392480,1435.693560,3694.518094,-8499.305875
682.395011,478.564520,-12155.538808,-8480.163294
682.397541,191.425808,12212.966550,-8078.169098
682.400072,-3617.947771,-1129.412267,-9284.151688
682.402603,3943.371645,3005.385186,-9054.440718
682.405133,-2258.824534,-1435.693560,-8633.303941
682.407664,-708.275490,10394.421374,-8116.454259
682.410194,4326.223261,-401.994197,-8346.165229
682.412725,-1282.552914,8039.883936,-8499.305875
682.415255,-210.568389,-7963.313613,-9820.143950
682.417786,2737.389054,3215.953574,-8097.311678
682.420316,-555.134843,5819.344563,-8059.026517
682.422847,-325.423874,14069.796888,-8422.735552
682.425377,689.132909,-7408.178770,-9513.862658
682.427908,-248.853550,153.140646,-8767.302006
682.430439,-1990.828403,4881.358104,-8097.311678
682.432969,5283.352301,6470.192310,-8173.882002
682.435500,-1205.982590,5934.200048,-8843.872330
682.438030,1588.834206,1129.412267,-9801.001370
682.440561,727.418070,-4153.940034,-7848.458128
682.443091,-2182.254211,-3790.230998,-8384.450390
682.445622,-1359.123237,229.710970,-9111.868461
682.448152,3598.805190,-918.843878,-9667.003304
682.450683,-1282.552914,-2622.533570,-8403.592971
682.453214,-937.986459,2813.959378,-8518.448456
682.455744,1531.406464,-3483.949706,-8461.020714
682.458275,287.138712,4230.510357,-8652.446522
682.460805,-3254.238736,-3924.229064,-9820.143950
682.463336,2890.529701,478.564520,-9150.153622
682.465866,-172.283227,-727.418070,-8250.452325
682.468397,-4421.936165,-1033.699363,-8480.163294
682.470927,401.994197,-7484.749093,-10088.140082
682.473458,-976.271621,555.134843,-9054.440718
682.475989,-3885.943902,-4268.795518,-8805.587168
682.478519,3235.096155,3637.090352,-8422.735552
682.481050,-1397.408398,-957.129040,-8384.450390
682.483580,-1914.258080,2373.680019,-9686.145885
682.486111,1205.982590,-6202.196179,-9245.866526
682.488650,516.849682,-1052.841944,-7925.028451
682.491189,-4823.930362,1684.547110,-8154.739421
682.493729,3637.090352,650.847747,-10011.569758
682.496268,0.000000,1875.972918,-8843.872330
682.498807,-1129.412267,2277.967115,-8633.303941
682.501346,2316.252277,1933.400661,-8078.169098
682.503886,1339.980656,4287.938099,-8365.307810
682.506425,-4747.360038,1512.263883,-9207.581365
682.508964,4326.223261,267.996131,-9533.005238
682.511504,-401.994197,1014.556782,-8135.596840
682.514043,-2507.678085,7829.315547,-8020.741355
682.516582,1780.260014,-9609.575562,-8958.727814
682.519122,1646.261949,1167.697429,-9437.292334
682.521661,-440.279358,6546.762634,-8920.442653
682.524200,1780.260014,7025.327154,-7963.313613
682.526739,-38.285162,-8078.169098,-8403.592971
682.529279,-1722.832272,6106.483275,-8920.442653
682.531818,3809.373579,1799.402595,-9418.149754
682.534357,1225.125171,3809.373579,-8173.882002
682.536897,-4000.799387,1493.121302,-8384.450390
682.539436,3005.385186,-4019.941968,-8977.870395
682.541975,-880.558717,7465.606512,-9016.155557
682.544514,-5340.780043,-8212.167163,-9035.298138
682.547054,1359.123237,-1607.976787,-8480.163294
682.549593,3215.953574,-1091.127106,-8212.167163
682.552132,-1588.834206,15314.064640,-8135.596840
682.554672,574.277424,-14395.220762,-10356.136213
682.557211,-344.566454,1493.121302,-8575.876198
682.559750,-2794.816797,-8020.741355,-8709.874264
682.562289,957.129040,4498.506488,-8269.594906
682.564829,1473.978722,-5379.065205,-9494.720077
682.567368,-3388.236802,4555.934230,-8575.876198
682.569907,3081.955509,516.849682,-8805.587168
682.572447,2297.109696,4153.940034,-7216.752962
682.574986,-2277.967115,-172.283227,-8556.733618
682.577525,2450.250342,-3005.385186,-9934.999435
682.580065,823.130974,-1512.263883,-8652.446522
682.582604,-976.271621,6202.196179,-7944.171032
682.585143,631.705166,-248.853550,-8461.020714
682.587682,172.283227,-7523.034254,-9265.009107
682.590221,-4173.082614,-2986.242605,-9131.011042
682.592768,-325.423874,-4594.219392,-9073.583299
682.595315,1282.552914,2029.113565,-7580.461997
682.597862,-2258.824534,3483.949706,-8939.585234
682.600409,1703.689691,6527.620053,-9513.862658
682.602956,3675.375514,497.707101,-8767.302006
682.605503,-3905.086483,-3330.809059,-8173.882002
682.608050,1761.117434,5245.067139,-8365.307810
682.610596,2316.252277,-3675.375514,-8690.731683
682.613143,-1856.830338,10356.136213,-9265.009107
682.615690,-1378.265818,459.421939,-9245.866526
682.618237,1761.117434,3617.947771,-7733.602643
682.620784,-3617.947771,-7312.465866,-8652.446522
682.623331,-1148.554848,7235.895542,-9724.431046
682.625878,3924.229064,-5245.067139,-9533.005238
682.628425,-4421.936165,7886.743290,-7714.460062
682.630971,-1014.556782,-6297.909083,-8690.731683
682.633518,5972.485210,6910.471669,-8422.735552
682.636065,-3215.953574,5245.067139,-9131.011042
682.638612,957.129040,-1148.554848,-9590.432981
682.641159,1875.972918,-1856.830338,-7905.885870
682.643706,-1129.412267,-2679.961312,-8327.022648
682.646253,95.712904,8901.300072,-9858.429112
682.648800,689.132909,-14701.502054,-9418.149754
682.651347,-2431.107762,3330.809059,-7963.313613
682.653893,1454.836141,-1225.125171,-8614.161360
682.656440,3732.803256,9265.009107,-7829.315547
682.658987,-3675.375514,-10375.278794,-10030.712339
682.661534,-1856.830338,1033.699363,-9418.149754
682.664081,1914.258080,-13859.228499,-8920.442653
682.666628,-2029.113565,8709.874264,-7580.461997
682.669175,-861.416136,-2756.531635,-10068.997501
682.671722,1493.121302,-1244.267752,-9437.292334
682.674268,-1703.689691,248.853550,-8652.446522
682.676815,1454.836141,8958.727814,-7810.172966
682.679362,3005.385186,-2565.105827,-8135.596840
682.681909,-2450.250342,-3713.660675,-9494.720077
682.684456,-1684.547110,-3024.527766,-9513.862658
682.687003,7025.327154,2928.814862,-7944.171032
682.689550,-995.414202,5149.354235,-7618.747158
682.692103,-2297.109696,38.285162,-9647.860723
682.694657,1454.836141,-5972.485210,-9839.286531
682.697210,-1952.543242,-6297.909083,-8556.733618
682.699764,-2373.680019,7676.174901,-7829.315547
682.702317,3675.375514,-2947.957443,-8901.300072
682.704871,-1225.125171,7752.745224,-8901.300072
682.707425,306.281293,4441.078746,-9590.432981
682.709978,2603.390989,-5283.352301,-8020.741355
682.712532,210.568389,516.849682,-8135.596840
682.715085,-4823.930362,937.986459,-9437.292334
682.717639,3369.094221,-401.994197,-9877.571693
682.720192,-1052.841944,-803.988394,-8537.591037
682.722746,-3254.238736,8729.016845,-7982.456194
682.725299,5895.914886,3311.666478,-8422.735552
682.727853,-3043.670347,3522.234867,-8614.161360
682.730406,-2641.676150,-5915.057467,-10202.995566
682.732960,4307.080680,7503.891674,-7791.030386
682.735513,-516.849682,4536.791650,-7312.465866
682.738067,-2163.111630,3139.383251,-8537.591037
682.740621,2009.970984,-5283.352301,-9954.142016
682.743174,1818.545176,1397.408398,-8403.592971
682.745728,-1397.408398,11810.972354,-7714.460062
682.748281,3790.230998,1646.261949,-8422.735552
682.750835,325.423874,2545.963246,-9169.296203
682.753388,-4938.785846,-7255.038123,-9667.003304
682.755942,2679.961312,-4498.506488,-8518.448456
682.758495,-2009.970984,-899.701298,-7829.315547
682.761049,-1646.261949,7216.752962,-9360.722011
682.763602,1339.980656,-6106.483275,-9973.284597
682.766156,1397.408398,5091.926493,-8537.591037
682.768709,-3426.521963,-2297.109696,-8078.169098
682.771263,2067.398726,3349.951640,-8135.596840
682.773817,497.707101,-5685.346498,-9571.290400
682.776370,-1263.410333,10164.710405,-9303.294269
682.778924,1875.972918,-11868.400096,-8633.303941
682.781477,-1780.260014,2469.392923,-7255.038123
682.784031,-1531.406464,-880.558717,-9456.434915
682.786584,3005.385186,4919.643266,-9628.718142
682.789138,1320.838075,57.427742,-8250.452325
682.791691,-3445.664544,727.418070,-8039.883936
682.794251,631.705166,-3905.086483,-8920.442653
682.796810,1282.552914,-4479.363907,-9647.860723
682.799370,-3560.520029,5838.487144,-9533.005238
682.801929,1033.699363,-7350.751027,-8480.163294
682.804488,2641.676150,14912.070443,-7255.038123
682.807048,-1550.549045,3139.383251,-9150.153622
682.809607,1722.832272,555.134843,-9494.720077
682.812167,-229.710970,-13304.093656,-8767.302006
682.814726,-2545.963246,12557.533005,-7561.319416
682.817285,3196.810994,-2488.535504,-8729.016845
682.819845,2660.818731,10298.708470,-8556.733618
682.822404,-2450.250342,-3369.094221,-9801.001370
682.824964,3196.810994,9360.722011,-7791.030386
682.827523,2737.389054,1263.410333,-7159.325219
682.830083,-2029.113565,4268.795518,-8690.731683
682.832642,4594.219392,2718.246474,-9896.714274
682.835201,3962.514226,5283.352301,-8078.169098
682.837761,-1665.404530,4843.072942,-7484.749093
682.840320,-229.710970,-3330.809059,-8920.442653
682.842880,1071.984525,-3120.240670,-9513.862658
682.845439,0.000000,4575.076811,-9418.149754
682.847998,2565.105827,10911.271056,-7657.032320
682.850558,1569.691626,-4479.363907,-7369.893608
682.853117,-2794.816797,5781.059402,-9341.579430
682.855677,19.142581,-14471.791085,-10336.993632
682.858236,1722.832272,-3828.516160,-8614.161360
682.860795,-2163.111630,918.843878,-7771.887805
682.863355,306.281293,13361.521398,-8614.161360
682.865914,516.849682,-14108.082050,-10375.278794
682.868474,-3579.662610,4689.932296,-9054.440718
682.871033,-1569.691626,-10987.841379,-8805.587168
682.873593,1550.549045,4039.084549,-7657.032320
682.876152,-3158.525832,-95.712904,-9571.290400
682.878711,1320.838075,3828.516160,-9820.143950
682.881271,-1186.840010,-10279.565890,-8863.014910
682.883830,-3024.527766,-937.986459,-7484.749093
682.886390,-574.277424,-3407.379382,-9303.294269
682.888949,5321.637462,3273.381317,-9245.866526
682.891508,-2545.963246,3215.953574,-8882.157491
682.894068,-1780.260014,-3235.096155,-8422.735552
682.896632,1301.695494,-2833.101958,-8020.741355
682.899196,-3139.383251,-3637.090352,-9724.431046
682.901760,-765.703232,4173.082614,-10107.282662
682.904324,1186.840010,-8556.733618,-8384.450390
682.906888,-191.425808,19334.006608,-7752.745224
682.909452,210.568389,6297.909083,-9016.155557
682.912017,4326.223261,3694.518094,-9111.868461
682.914581,-2890.529701,-11485.548480,-9169.296203
682.917145,153.140646,12940.384621,-7542.176835
682.919709,4862.215523,-3043.670347,-8059.026517
682.922273,-612.562586,13150.953010,-8690.731683
682.924837,-478.564520,-4651.647134,-10030.712339
682.927401,4804.787781,6642.475538,-7465.606512
682.929965,-440.279358,2794.816797,-7561.319416
682.932529,-2469.392923,8307.880067,-9150.153622
682.935093,4000.799387,-3426.521963,-10049.854920
682.937658,-1741.974853,4996.213589,-8499.305875
682.940222,-1531.406464,7121.040058,-8097.311678
682.942786,2373.680019,-2048.256146,-8020.741355
682.945350,-2029.113565,1569.691626,-9322.436850
682.947914,133.998066,861.416136,-9743.573627
682.950478,3235.096155,8231.309744,-7657.032320
682.953042,-995.414202,2967.100024,-7618.747158
682.955606,516.849682,4575.076811,-9207.581365
682.958170,1971.685822,-3215.953574,-9781.858789
682.960734,-1722.832272,-5072.783912,-8709.874264
682.963299,-4517.649069,-2718.246474,-8212.167163
682.965863,4115.654872,5800.201982,-8556.733618
682.968427,-1320.838075,-5359.922624,-9628.718142
682.970991,-1435.693560,7140.182638,-9245.866526
682.973555,57.427742,-10624.132344,-7982.456194
682.976119,-708.275490,7810.172966,-7427.321350
682.978683,-1722.832272,-7982.456194,-9839.286531
682.981247,-191.425808,-7523.034254,-9667.003304
682.983811,-2431.107762,-15390.634963,-8633.303941
682.986375,-2660.818731,9513.862658,-7561.319416
682.988940,4555.934230,-1933.400661,-9265.009107
682.991504,-5072.783912,-5398.207786,-9590.432981
682.994068,-3101.098090,-2220.539373,-9801.001370
682.996632,4651.647134,3790.230998,-7599.604578
682.999200,-1244.267752,4651.647134,-7637.889739
683.001768,-1933.400661,-4307.080680,-10183.852986
683.004337,2009.970984,-6527.620053,-9896.714274
683.006905,2584.248408,8422.735552,-7503.891674
683.009473,-4039.084549,708.275490,-8059.026517
683.012042,1856.830338,1205.982590,-9494.720077
683.014610,-57.427742,823.130974,-9781.858789
683.017178,-2699.103893,5264.209720,-8652.446522
683.019747,3062.812928,2699.103893,-7867.600709
683.022315,-2928.814862,-4479.363907,-8422.735552
683.024883,-133.998066,4823.930362,-10088.140082
683.027452,2124.826469,-4211.367776,-9552.147819
683.030020,3254.238736,10088.140082,-7140.182638
683.032588,-1435.693560,6374.479406,-7905.885870
683.035157,57.427742,-4689.932296,-9934.999435
683.037725,1244.267752,-3713.660675,-9571.290400
683.040293,-1550.549045,12366.107197,-7752.745224
683.042862,3522.234867,-4517.649069,-8288.737486
683.045430,-1263.410333,57.427742,-8537.591037
683.047998,-2947.957443,-1684.547110,-10164.710405
683.050567,5455.635528,9073.583299,-8556.733618
683.053135,-2833.101958,-3081.955509,-7829.315547
683.055703,-1856.830338,8824.729749,-8327.022648
683.058272,-2507.678085,-17458.033690,-10375.278794
683.060840,2584.248408,-382.851616,-9111.868461
683.063408,-2163.111630,4747.360038,-8269.594906
683.065977,3962.514226,12940.384621,-7618.747158
683.068545,-1339.980656,-14644.074312,-9647.860723
683.071113,-4421.936165,1952.543242,-9801.001370
683.073682,3694.518094,-7848.458128,-8977.870395
683.076250,-57.427742,7101.897477,-7101.897477
683.078818,-3809.373579,-4230.510357,-9379.864592
683.081387,-612.562586,76.570323,-10068.997501
683.083955,1397.408398,-6355.336826,-8997.012976
683.086523,-3541.377448,5685.346498,-7561.319416
683.089092,2258.824534,-746.560651,-8518.448456
683.091660,-267.996131,-7695.317482,-9322.436850
683.094228,-2526.820666,5781.059402,-9590.432981
683.096797,5187.639397,918.843878,-8537.591037
683.099365,-1225.125171,2392.822600,-7255.038123
683.101937,-4307.080680,1607.976787,-9131.011042
683.104508,-133.998066,-6910.471669,-10164.710405
683.107079,2909.672282,2699.103893,-7676.174901
683.109651,-2526.820666,3598.805190,-7771.887805
683.112222,1148.554848,3885.943902,-8786.444587
683.114793,3043.670347,2947.957443,-9533.005238
683.117365,-3292.523898,-746.560651,-9111.868461
683.119936,1895.115499,4173.082614,-8173.882002
683.122508,440.279358,-2220.539373,-8039.883936
683.125079,-229.710970,12251.251712,-9131.011042
683.127650,1282.552914,574.277424,-9801.001370
683.130222,3043.670347,6202.196179,-7657.032320
683.132793,-2029.113565,306.281293,-7982.456194
683.135365,-689.132909,-899.701298,-9858.429112
683.137936,2890.529701,-1263.410333,-9858.429112
683.140507,-2947.957443,11160.124606,-8269.594906
683.143079,-19.142581,-5130.211654,-8709.874264
683.145650,191.425808,-2143.969050,-8633.303941
683.148221,-3637.090352,1416.550979,-9705.288466
683.150793,5417.350366,10049.854920,-8901.300072
683.153364,2928.814862,-593.420005,-7542.176835
683.155936,-1225.125171,7331.608446,-8116.454259
683.158507,-4058.227130,-15830.914322,-9973.284597
683.161078,3503.092286,-1129.412267,-9150.153622
683.163650,-1588.834206,3694.518094,-8307.880067
683.166221,2335.394858,11064.411702,-7925.028451
683.168793,-574.277424,-16003.197549,-9475.577496
683.171364,-4709.074877,1588.834206,-9647.860723
683.173935,2928.814862,-6508.477472,-9226.723946
683.176507,1454.836141,3751.945837,-7752.745224
683.179078,-2890.529701,-2833.101958,-9016.155557
683.181649,1052.841944,9226.723946,-9571.290400
683.184224,3081.955509,-4957.928427,-8671.589102
683.186798,-4441.078746,-2163.111630,-7848.458128
683.189372,708.275490,-3215.953574,-8939.585234
683.191946,2297.109696,-2488.535504,-8997.012976
683.194521,-3694.518094,2143.969050,-9150.153622
683.197095,2067.398726,-3771.088418,-8843.872330
683.199669,1282.552914,382.851616,-7427.321350
683.202243,344.566454,6106.483275,-8863.014910
683.204818,-823.130974,-2890.529701,-9781.858789
683.207392,4517.649069,8499.305875,-7944.171032
683.209966,-3866.801322,-1550.549045,-8078.169098
683.212540,-957.129040,1761.117434,-9341.579430
683.215115,3043.670347,-3388.236802,-9667.003304
683.217689,-2297.109696,7197.610381,-8384.450390
683.220263,-191.425808,2718.246474,-8422.735552
683.222837,19.142581,-5187.639397,-8346.165229
683.225412,-1435.693560,-4153.940034,-9609.575562
683.227986,880.558717,7446.463931,-9092.725880
683.230560,4670.789715,10777.272990,-7101.897477
683.233134,-4000.799387,-5417.350366,-7982.456194
683.235709,-631.705166,2794.816797,-9781.858789
683.238283,4957.928427,-1856.830338,-9399.007173
683.240857,-229.710970,13572.089787,-7676.174901
683.243431,-325.423874,-516.849682,-8403.592971
683.246005,2660.818731,1493.121302,-8480.163294
683.248580,-1741.974853,-401.994197,-9724.431046
683.251154,-1856.830338,4575.076811,-8843.872330
683.253728,2258.824534,1646.261949,-7752.745224
683.256302,-363.709035,440.279358,-8690.731683
683.258877,-2565.105827,-76.570323,-10068.997501
683.261451,2048.256146,-8173.882002,-9494.720077
683.264025,-4000.799387,-1818.545176,-7867.600709
683.266599,-287.138712,5589.633594,-8652.446522
683.269174,2029.113565,-4632.504554,-9303.294269
683.271748,-2335.394858,3062.812928,-9418.149754
683.274322,-3388.236802,2603.390989,-8193.024582
683.276896,2565.105827,-2239.681954,-8173.882002
683.279471,-880.558717,-3101.098090,-8824.729749
683.282045,-1339.980656,2009.970984,-9858.429112
683.284619,3809.373579,133.998066,-8384.450390
683.287175,-535.992262,4900.500685,-7369.893608
683.289732,-899.701298,-5130.211654,-9150.153622
683.292288,4460.221326,1167.697429,-9303.294269
683.294845,-861.416136,1397.408398,-8977.870395
683.297401,574.277424,4287.938099,-8154.739421
683.299958,727.418070,-8327.022648,-8729.016845
683.302514,-708.275490,-3809.373579,-9418.149754
683.305070,-3637.090352,-1282.552914,-9437.292334
683.307627,4689.932296,5800.201982,-8461.020714
683.310183,-957.129040,6757.331022,-7657.032320
683.312740,133.998066,4823.930362,-9456.434915
683.315296,1646.261949,-11944.970419,-9609.575562
683.317853,-650.847747,10126.425243,-7676.174901
683.320409,1378.265818,4153.940034,-8135.596840
683.322965,3713.660675,6106.483275,-8843.872330
683.325522,-19.142581,-1129.412267,-9073.583299
683.328078,-765.703232,8958.727814,-8346.165229
683.330635,3311.666478,-1416.550979,-7810.172966
683.333191,191.425808,6623.332957,-7848.458128
683.335748,-1837.687757,-1818.545176,-9762.716208
683.338304,4613.361973,7006.184573,-8805.587168
683.340860,-1512.263883,2699.103893,-7503.891674
683.343417,267.996131,4230.510357,-8499.305875
683.345973,1607.976787,-5838.487144,-9150.153622
683.348530,1091.127106,4383.651003,-8863.014910
683.351086,-1741.974853,7274.180704,-8154.739421
683.353643,4689.932296,1665.404530,-8518.448456
683.356199,-3005.385186,-4689.932296,-8671.589102
683.358755,-2679.961312,-5704.489078,-10126.425243
683.361312,803.988394,-3349.951640,-8537.591037
683.363868,842.273555,11944.970419,-7561.319416
683.366425,-2775.674216,-5895.914886,-9762.716208
683.368981,631.705166,-5493.920690,-9973.284597
683.371538,-3675.375514,-10528.419440,-8193.024582
683.374094,-957.129040,5627.918755,-8193.024582
683.376650,4536.791650,1856.830338,-8824.729749
683.379207,957.129040,9475.577496,-8805.587168
683.381763,-5130.211654,-13380.663979,-9437.292334
683.384320,727.418070,-2258.824534,-8154.739421
683.386876,1205.982590,-2048.256146,-8193.024582
683.389437,-593.420005,7446.463931,-9418.149754
683.391998,76.570323,-7235.895542,-9992.427178
683.394559,-1397.408398,823.130974,-8135.596840
683.397121,-2163.111630,-4287.938099,-8327.022648
683.399682,1990.828403,-2890.529701,-9418.149754
683.402243,-2297.109696,-3254.238736,-9016.155557
683.404804,650.847747,8633.303941,-8690.731683
683.407365,3024.527766,6680.760699,-7676.174901
683.409926,2545.963246,2813.959378,-8556.733618
683.412487,-3981.656806,-6451.049730,-9877.571693
683.415048,3158.525832,4689.932296,-8595.018779
683.417609,1627.119368,5685.346498,-7216.752962
683.420171,-478.564520,12193.823970,-8671.589102
683.422732,-842.273555,-3885.943902,-9705.288466
683.425293,267.996131,172.283227,-8709.874264
683.427854,-593.420005,4900.500685,-8001.598774
683.430415,1895.115499,3732.803256,-8614.161360
683.432976,38.285162,-1990.828403,-9513.862658
683.435537,-2411.965181,4900.500685,-9437.292334
683.438098,2507.678085,2297.109696,-8403.592971
683.440659,1225.125171,4938.785846,-7580.461997
683.443221,-3771.088418,-1205.982590,-9705.288466
683.445782,-1339.980656,-2450.250342,-9801.001370
683.448343,650.847747,2507.678085,-8154.739421
683.450904,957.129040,2603.390989,-8193.024582
683.453465,-325.423874,880.558717,-8939.585234
683.456026,-191.425808,-10375.278794,-9820.143950
683.458587,-4594.219392,382.851616,-8614.161360
683.461148,3177.668413,4843.072942,-8173.882002
683.463709,-593.420005,-3024.527766,-8709.874264
683.466271,-3311.666478,-1205.982590,-9877.571693
683.468832,-1091.127106,-12538.390424,-9284.151688
683.471393,2316.252277,-4287.938099,-8250.452325
683.473954,-1684.547110,-325.423874,-8748.159426
683.476515,-1741.974853,1263.410333,-9647.860723
683.479076,-172.283227,-8480.163294,-8882.157491
683.481637,-4307.080680,1818.545176,-8173.882002
683.484198,-95.712904,-4460.221326,-9284.151688
683.486759,-19.142581,1588.834206,-9245.866526
683.489321,-3426.521963,-1780.260014,-9762.716208
683.491886,1703.689691,2297.109696,-8193.024582
683.494451,4268.795518,1435.693560,-8365.307810
683.497017,-229.710970,-746.560651,-9169.296203
683.499582,-535.992262,8767.302006,-8977.870395
683.502148,2699.103893,-4881.358104,-8499.305875
683.504713,-3751.945837,6259.623922,-8059.026517
683.507278,1780.260014,-1225.125171,-9801.001370
683.509844,1588.834206,2354.537438,-8690.731683
683.512409,-3426.521963,2833.101958,-8518.448456
683.514974,191.425808,1703.689691,-8480.163294
683.517540,5570.491013,-1588.834206,-9647.860723
683.520105,382.851616,9092.725880,-8518.448456
683.522671,1493.121302,12634.103328,-8173.882002
683.525236,2450.250342,-3349.951640,-8001.598774
683.527801,-2986.242605,-1110.269686,-9035.298138
683.530367,1761.117434,4996.213589,-9647.860723
683.532932,2297.109696,4766.502619,-7829.315547
683.535498,-2775.674216,-3081.955509,-8269.594906
683.538063,-133.998066,2737.389054,-8709.874264
683.540628,5589.633594,4345.365842,-8824.729749
683.543194,631.705166,6221.338760,-7752.745224
683.545759,-918.843878,3637.090352,-8288.737486
683.548325,-746.560651,-15486.347867,-8997.012976
683.550890,-1665.404530,-344.566454,-9456.434915
683.553455,516.849682,4555.934230,-9475.577496
683.556021,3905.086483,9284.151688,-7293.323285
683.558586,-3943.371645,-12040.683323,-8977.870395
683.561152,-2105.683888,-76.570323,-9513.862658
683.563717,6585.047795,76.570323,-9016.155557
683.566282,-3139.383251,11102.696864,-7733.602643
683.568848,-4957.928427,-9284.151688,-9399.007173
683.571413,-880.558717,-6910.471669,-9839.286531
683.573979,478.564520,57.427742,-9245.866526
683.576544,-2354.537438,5532.205851,-8384.450390
683.579109,-1263.410333,-10279.565890,-8480.163294
683.581675,-2411.965181,-3292.523898,-9169.296203
683.584240,-382.851616,3177.668413,-9418.149754
683.586806,4173.082614,1914.258080,-8499.305875
683.589371,-6833.901346,-8518.448456,-8422.735552
683.591936,-2852.244539,-4862.215523,-9513.862658
683.594496,1320.838075,-1359.123237,-9054.440718
683.597064,1895.115499,3426.521963,-8633.303941
683.599633,-2277.967115,8958.727814,-8001.598774
683.602201,3885.943902,-803.988394,-8997.012976
683.604770,-1320.838075,-4613.361973,-9188.438784
683.607339,-1052.841944,7121.040058,-8633.303941
683.609907,5800.201982,1990.828403,-7982.456194
683.612476,-2718.246474,6604.190376,-8327.022648
683.615045,-4728.217458,-4211.367776,-9552.147819
683.617613,2431.107762,2029.113565,-9111.868461
683.620182,4709.074877,5589.633594,-7733.602643
683.622751,-306.281293,14912.070443,-8307.880067
683.625319,4058.227130,-2469.392923,-9494.720077
683.627888,-2928.814862,-1837.687757,-8575.876198
683.630456,535.992262,19.142581,-8614.161360
683.633025,5455.635528,5761.916821,-7886.743290
683.635594,-1550.549045,5053.641331,-8805.587168
683.638162,-1933.400661,-4689.932296,-9877.571693
683.640731,516.849682,976.271621,-8939.585234
683.643300,-1205.982590,-14624.931731,-8480.163294
683.645868,-1225.125171,7867.600709,-8901.300072
683.648437,5245.067139,-1091.127106,-9284.151688
683.651005,267.996131,9456.434915,-7197.610381
683.653574,-3675.375514,-12595.818166,-9054.440718
683.656143,3694.518094,2239.681954,-8824.729749
683.658711,2756.531635,4402.793584,-8958.727814
683.661280,-3981.656806,2258.824534,-8116.454259
683.663849,2029.113565,-5321.637462,-9226.723946
683.666417,-363.709035,-3656.232933,-8824.729749
683.668986,-2813.959378,-6355.336826,-9552.147819
683.671554,2507.678085,2679.961312,-8480.163294
683.674123,-2526.820666,-4498.506488,-8078.169098
683.676692,-2794.816797,-4173.082614,-9494.720077
683.679260,1454.836141,2794.816797,-9418.149754
683.681829,1761.117434,727.418070,-8480.163294
683.684398,-5551.348432,-3139.383251,-8135.596840
683.686966,1703.689691,-10509.276859,-9494.720077
683.689535,-363.709035,57.427742,-8748.159426
683.692103,306.281293,5034.498750,-8786.444587
683.694672,2986.242605,10030.712339,-7733.602643
683.697244,823.130974,-2143.969050,-8652.446522
683.699815,-2545.963246,-1875.972918,-9456.434915
683.702387,2871.387120,2182.254211,-8767.302006
683.704959,2775.674216,6757.331022,-7523.034254
683.707530,-3349.951640,5034.498750,-8652.446522
683.710102,937.986459,-13782.658176,-10088.140082
683.712673,-1722.832272,1263.410333,-8499.305875
683.715245,-612.562586,4000.799387,-8461.020714
683.717817,2909.672282,10700.702667,-8614.161360
683.720388,3254.238736,6623.332957,-9188.438784
683.722960,-6355.336826,2124.826469,-9073.583299
683.725532,3388.236802,-3847.658741,-8958.727814
683.728103,2660.818731,4977.071008,-7637.889739
683.730675,-306.281293,12978.669782,-8154.739421
683.733246,4173.082614,-4421.936165,-9437.292334
683.735818,-1531.406464,1493.121302,-8480.163294
683.738390,-6183.053598,-11389.835576,-8441.878133
683.740961,1550.549045,-1512.263883,-9322.436850
683.743533,3005.385186,842.273555,-8863.014910
683.746104,-2622.533570,12748.958813,-8001.598774
683.748676,-172.283227,-15811.771741,-9647.860723
683.751248,76.570323,-765.703232,-8882.157491
683.753819,-325.423874,4957.928427,-8958.727814
683.756391,1435.693560,5493.920690,-8461.020714
683.758963,-2565.105827,-13744.373014,-9475.577496
683.761534,-8729.016845,-8767.302006,-9494.720077
683.764106,631.705166,-8039.883936,-9839.286531
683.766677,2928.814862,7389.036189,-7810.172966
683.769249,-3311.666478,4785.645200,-8614.161360
683.771821,-1320.838075,-6948.756830,-9934.999435
683.774392,-459.421939,-3809.373579,-8863.014910
683.776964,172.283227,5666.203917,-8327.022648
683.779536,2124.826469,5723.631659,-8059.026517
683.782107,689.132909,-9322.436850,-9169.296203
683.784679,-5091.926493,6508.477472,-9054.440718
683.787250,-669.990328,-4517.649069,-9284.151688
683.789822,1780.260014,4211.367776,-8001.598774
683.792394,-3694.518094,-3579.662610,-9609.575562
683.794965,2354.537438,10566.704602,-9111.868461
683.797537,1052.841944,-3656.232933,-8231.309744
683.800111,-4345.365842,6374.479406,-8250.452325
683.802684,3771.088418,5130.211654,-9456.434915
683.805258,-229.710970,-3503.092286,-8843.872330
683.807832,-4689.932296,5034.498750,-8518.448456
683.810406,3866.801322,-976.271621,-8633.303941
683.812979,3388.236802,-267.996131,-8748.159426
683.815553,-2545.963246,803.988394,-9092.725880
683.818127,-267.996131,3732.803256,-8939.585234
683.820701,4364.508422,-2469.392923,-8173.882002
683.823275,-4843.072942,7867.600709,-8288.737486
683.825848,229.710970,-4862.215523,-9992.427178
683.828422,3024.527766,7389.036189,-8537.591037
683.830996,-2737.389054,-3943.371645,-8518.448456
683.833570,1416.550979,1875.972918,-8403.592971
683.836143,3713.660675,-7657.032320,-9341.579430
683.838717,-2641.676150,4689.932296,-8173.882002
683.841291,-957.129040,-4153.940034,-9092.725880
683.843865,2871.387120,689.132909,-8288.737486
683.846438,-2067.398726,-191.425808,-9150.153622
683.849012,-1914.258080,-5532.205851,-9494.720077
683.851586,2450.250342,-1263.410333,-8231.309744
683.854160,-3694.518094,-7216.752962,-9131.011042
683.856734,-1110.269686,612.562586,-9437.292334
683.859307,3081.955509,-3215.953574,-8863.014910
683.861881,-5666.203917,3579.662610,-8173.882002
683.864455,-2277.967115,-6642.475538,-9896.714274
683.867029,-574.277424,-669.990328,-8977.870395
683.869602,-1282.552914,2794.816797,-8901.300072
683.872176,-593.420005,-689.132909,-8690.731683
683.874750,-1167.697429,-10088.140082,-8690.731683
683.877324,-3139.383251,4498.506488,-8863.014910
683.879898,3732.803256,10566.704602,-9226.723946
683.882471,3024.527766,3847.658741,-7867.600709
683.885045,-727.418070,344.566454,-8346.165229
683.887619,-440.279358,287.138712,-9475.577496
683.890193,3005.385186,2373.680019,-8441.878133
683.892766,-1071.984525,5455.635528,-7886.743290
683.895340,95.712904,2258.824534,-9188.438784
683.897914,995.414202,-10643.274925,-9456.434915
683.900488,-5053.641331,2565.105827,-8384.450390
683.903063,3081.955509,3503.092286,-8901.300072
683.905639,2316.252277,6604.190376,-8193.024582
683.908215,-133.998066,-1244.267752,-9341.579430
683.910791,-3483.949706,3407.379382,-9207.581365
683.913367,3464.807125,-1933.400661,-8729.016845
683.915943,-2679.961312,4077.369710,-8269.594906
683.918518,-2833.101958,2947.957443,-9915.856854
683.921094,3196.810994,3024.527766,-9169.296203
683.923670,-1014.556782,5149.354235,-8307.880067
683.926246,-3215.953574,-5168.496816,-8595.018779
683.928822,-95.712904,-10107.282662,-9475.577496
683.931397,-3330.809059,784.845813,-9131.011042
683.933973,-1167.697429,3866.801322,-8786.444587
683.936549,3273.381317,114.855485,-8403.592971
683.939125,-2431.107762,-3732.803256,-9131.011042
683.941701,-2373.680019,-6661.618118,-9226.723946
683.944276,4134.797453,8824.729749,-7657.032320
683.946852,-727.418070,-555.134843,-8652.446522
683.949428,-3828.516160,1129.412267,-9437.292334
683.952004,2411.965181,-9858.429112,-8977.870395
683.954580,-3885.943902,1952.543242,-7771.887805
683.957155,133.998066,-4058.227130,-9360.722011
683.959731,2105.683888,2545.963246,-8671.589102
683.962307,765.703232,114.855485,-8595.018779
683.964883,-555.134843,-421.136778,-8575.876198
683.967459,1263.410333,-7944.171032,-8441.878133
683.970034,-1569.691626,669.990328,-8556.733618
683.972610,1397.408398,7676.174901,-9475.577496
683.975186,3847.658741,4709.074877,-7925.028451
683.977762,-995.414202,3771.088418,-7886.743290
683.980338,-1033.699363,-9647.860723,-9915.856854
683.982913,918.843878,-937.986459,-9188.438784
683.985489,153.140646,3560.520029,-7963.313613
683.988065,-1493.121302,4460.221326,-8863.014910
683.990641,3637.090352,-6527.620053,-9590.432981
683.993217,1646.261949,19889.141451,-7503.891674
683.995792,2928.814862,7963.313613,-8078.169098
683.998368,-689.132909,-2163.111630,-8652.446522
684.000944,-1818.545176,-6891.329088,-9533.005238
684.003520,4115.654872,11676.974288,-8556.733618
684.006097,5857.629725,4287.938099,-8212.167163
684.008674,1033.699363,7293.323285,-7733.602643
684.011251,-5340.780043,-5551.348432,-9628.718142
684.013828,3790.230998,4575.076811,-9418.149754
684.016406,1071.984525,-612.562586,-8422.735552
684.018983,-3522.234867,4957.928427,-8250.452325
684.021560,421.136778,-12768.101394,-9992.427178
684.024137,-1722.832272,0.000000,-8920.442653
684.026714,114.855485,7561.319416,-8671.589102
684.029291,1359.123237,-4996.213589,-8403.592971
684.031868,1454.836141,-4460.221326,-8882.157491
684.034446,-4077.369710,-4249.652938,-9016.155557
684.037023,2488.535504,-1186.840010,-8633.303941
684.039600,3637.090352,2297.109696,-8633.303941
684.042177,-3273.381317,9475.577496,-8556.733618
684.044754,1971.685822,-9724.431046,-9054.440718
684.047331,-57.427742,2660.818731,-8116.454259
684.049909,-574.277424,1722.832272,-9054.440718
684.052486,2660.818731,1052.841944,-8518.448456
684.055063,-574.277424,-1741.974853,-8997.012976
684.057640,-1493.121302,6719.045861,-8595.018779
684.060217,1703.689691,-5551.348432,-8901.300072
684.062794,1263.410333,11428.120738,-8403.592971
684.065371,-3981.656806,-4632.504554,-9494.720077
684.067949,1033.699363,4019.941968,-8575.876198
684.070526,574.277424,-440.279358,-8595.018779
684.073103,-1454.836141,8652.446522,-8824.729749
684.075680,880.558717,-3675.375514,-9073.583299
684.078257,-1799.402595,976.271621,-8384.450390
684.080834,-3235.096155,1263.410333,-9169.296203
684.083412,2526.820666,3866.801322,-8767.302006
684.085989,842.273555,5589.633594,-7657.032320
684.088566,-1550.549045,2450.250342,-8116.454259
684.091143,3522.234867,4670.789715,-8882.157491
684.093720,2488.535504,4249.652938,-8652.446522
684.096297,-2584.248408,4192.225195,-8422.735552
684.098874,3981.656806,-555.134843,-8671.589102
684.101452,4134.797453,8997.012976,-7676.174901
684.104029,-1722.832272,-133.998066,-8920.442653
684.106606,861.416136,4115.654872,-9265.009107
684.109184,-3560.520029,-19889.141451,-8920.442653
684.111762,-1780.260014,3943.371645,-8729.016845
684.114341,2890.529701,2565.105827,-9437.292334
684.116919,2584.248408,9858.429112,-8039.883936
684.119497,-5704.489078,-14031.511726,-9303.294269
684.122075,1320.838075,2488.535504,-8595.018779
684.124654,4594.219392,497.707101,-8422.735552
684.127232,-2928.814862,3062.812928,-8575.876198
684.129810,-4441.078746,-12519.247843,-10088.140082
684.132388,2794.816797,-669.990328,-9092.725880
684.134966,-2239.681954,3579.662610,-8709.874264
684.137545,-2450.250342,1971.685822,-8709.874264
684.140123,38.285162,-8116.454259,-8977.870395
684.142701,-1033.699363,4689.932296,-8786.444587
684.145279,325.423874,1359.123237,-8748.159426
684.147858,459.421939,-7752.745224,-8556.733618
684.150436,-4613.361973,-1244.267752,-9150.153622
684.153014,669.990328,1703.689691,-8920.442653
684.155592,5532.205851,1741.974853,-9207.581365
684.158171,-95.712904,9820.143950,-7771.887805
684.160749,-459.421939,-287.138712,-8652.446522
684.163327,2086.541307,-10049.854920,-9131.011042
684.165905,-2086.541307,9915.856854,-8633.303941
684.168484,3196.810994,4421.936165,-8518.448456
684.171062,2660.818731,5111.069074,-8020.741355
684.173640,-2565.105827,3311.666478,-9092.725880
684.176218,19.142581,-1205.982590,-8882.157491
684.178797,4019.941968,-5015.356170,-8499.305875
684.181375,937.986459,12002.398162,-8288.737486
684.183953,-76.570323,5857.629725,-9073.583299
684.186531,2258.824534,-1875.972918,-8767.302006
684.189110,-2852.244539,-1818.545176,-8805.587168
684.191688,3369.094221,9016.155557,-8403.592971
684.194266,3101.098090,-1818.545176,-8384.450390
684.196844,-3713.660675,5934.200048,-8882.157491
684.199422,1014.556782,-6680.760699,-9571.290400
684.202001,3675.375514,1818.545176,-7925.028451
684.204579,823.130974,38.285162,-8116.454259
684.207157,-1741.974853,5570.491013,-8652.446522
684.209735,2450.250342,-10834.700733,-9418.149754
684.212315,-95.712904,5493.920690,-8001.598774
684.214894,784.845813,-612.562586,-8709.874264
684.217473,3981.656806,-2679.961312,-8307.880067
684.220053,-3426.521963,114.855485,-8709.874264
684.222632,823.130974,-3158.525832,-9724.431046
684.225211,3732.803256,3388.236802,-8518.448456
684.227790,-2392.822600,-19.142581,-8097.311678
684.230370,-4058.227130,-1378.265818,-9360.722011
684.232949,3981.656806,-1914.258080,-9571.290400
684.235528,-1856.830338,3426.521963,-8231.309744
684.238107,-2852.244539,-6183.053598,-9169.296203
684.240687,459.421939,-3751.945837,-8882.157491
684.243266,-1550.549045,-153.140646,-8346.165229
684.245845,4345.365842,18453.447891,-8652.446522
684.248424,1895.115499,-2660.818731,-8843.872330
684.251004,-4268.795518,612.562586,-8154.739421
684.253583,-4421.936165,-9954.142016,-9265.009107
684.256162,5972.485210,10604.989763,-8805.587168
684.258742,2220.539373,3981.656806,-7829.315547
684.261321,-2124.826469,8480.163294,-8365.307810
684.263900,2507.678085,-9934.999435,-9265.009107
684.266479,133.998066,2488.535504,-8116.454259
684.269059,1033.699363,3694.518094,-8327.022648
684.271638,6642.475538,10643.274925,-8461.020714
684.274217,-3330.809059,-555.134843,-8748.159426
684.276796,-4977.071008,344.566454,-9035.298138
684.279376,1129.412267,-5053.641331,-9284.151688
684.281955,2297.109696,7676.174901,-8307.880067
684.284534,-3349.951640,3101.098090,-8958.727814
684.287113,2086.541307,689.132909,-9399.007173
684.289693,-1473.978722,-10815.558152,-8767.302006
684.292272,-248.853550,11102.696864,-8020.741355
684.294851,3483.949706,-6202.196179,-8977.870395
684.297431,-2833.101958,-133.998066,-8633.303941
684.300010,-459.421939,-1665.404530,-9571.290400
684.302589,2947.957443,4613.361973,-8499.305875
684.305168,3235.096155,76.570323,-8154.739421
684.307748,-1952.543242,6393.621987,-8499.305875
684.310327,3426.521963,133.998066,-9054.440718
684.312906,4287.938099,6757.331022,-8173.882002
684.315486,-995.414202,4575.076811,-8097.311678
684.318066,3292.523898,-3407.379382,-8422.735552
684.320646,-421.136778,535.992262,-8097.311678
684.323225,1550.549045,4862.215523,-8920.442653
684.325805,574.277424,-1684.547110,-9016.155557
684.328385,2392.822600,-4307.080680,-8078.169098
684.330965,-3885.943902,-3483.949706,-8690.731683
684.333545,612.562586,-229.710970,-8882.157491
684.336124,4900.500685,10107.282662,-8690.731683
684.338704,-2182.254211,5781.059402,-8767.302006
684.341284,2124.826469,-880.558717,-8480.163294
684.343864,-669.990328,-10279.565890,-8537.591037
684.346444,133.998066,15639.488514,-8480.163294
684.349023,5053.641331,-516.849682,-9035.298138
684.351603,3464.807125,7523.034254,-7752.745224
684.354183,-478.564520,5570.491013,-8537.591037
