#time,accel_x,accel_y,accel_z
824.165634,-7063.612315,1397.408398,-8901.300072
824.168191,918.843878,3579.662610,-9035.298138
824.170748,4000.799387,-325.423874,-8690.731683
824.173305,-1531.406464,-325.423874,-8403.592971
824.175862,-516.849682,4383.651003,-8135.596840
824.178419,5015.356170,1741.974853,-8690.731683
824.180994,-6374.479406,-976.271621,-9092.725880
824.183569,-3866.801322,4460.221326,-9226.723946
824.186144,1493.121302,-861.416136,-9150.153622
824.188719,-1282.552914,-2029.113565,-8786.444587
824.191294,2756.531635,2622.533570,-8403.592971
824.193869,1397.408398,957.129040,-9686.145885
824.196444,-1646.261949,746.560651,-9399.007173
824.199019,-6910.471669,2890.529701,-8403.592971
824.201594,1646.261949,1397.408398,-9265.009107
824.204170,2813.959378,-3560.520029,-8977.870395
824.206745,3694.518094,5455.635528,-7389.036189
824.209320,9992.427178,976.271621,-7848.458128
824.211895,1282.552914,-5972.485210,-8671.589102
824.214470,-4402.793584,535.992262,-9207.581365
824.217045,1397.408398,5742.774240,-8863.014910
824.219620,9724.431046,1493.121302,-7637.889739
824.222195,6776.473603,-1646.261949,-7714.460062
824.224770,-306.281293,1990.828403,-7695.317482
824.227345,-114.855485,-1473.978722,-10356.136213
824.229920,-2756.531635,574.277424,-9533.005238
824.232495,-153.140646,5379.065205,-7637.889739
824.235070,7427.321350,-2794.816797,-8250.452325
824.237645,918.843878,-1684.547110,-9016.155557
824.240220,-2679.961312,5627.918755,-8365.307810
824.242795,5455.635528,2852.244539,-9111.868461
824.245370,2603.390989,-2584.248408,-9150.153622
824.247946,-8269.594906,880.558717,-8212.167163
824.250521,1799.402595,2890.529701,-9303.294269
824.253096,3943.371645,-363.709035,-9896.714274
824.255671,-4039.084549,3349.951640,-7982.456194
824.258246,4747.360038,2794.816797,-8001.598774
824.260821,5034.498750,-1263.410333,-9647.860723
824.263396,-7752.745224,-19.142581,-8537.591037
824.265971,2316.252277,3924.229064,-8595.018779
824.268546,7886.743290,-1607.976787,-8709.874264
824.271121,114.855485,-4517.649069,-8097.311678
824.273696,3809.373579,1684.547110,-8537.591037
824.276271,-1263.410333,3981.656806,-9035.298138
824.278846,-8441.878133,-1837.687757,-9705.288466
824.281421,-10164.710405,5264.209720,-9131.011042
824.284004,2392.822600,1990.828403,-9303.294269
824.286587,6699.903280,-3541.377448,-8097.311678
824.289170,-421.136778,2718.246474,-7293.323285
824.291753,3311.666478,-76.570323,-8614.161360
824.294336,1856.830338,-2909.672282,-9437.292334
824.296919,-7867.600709,-1741.974853,-9035.298138
824.299502,-765.703232,5876.772306,-8882.157491
824.302085,6202.196179,-1435.693560,-8346.165229
824.304668,-3081.955509,344.566454,-8097.311678
824.307251,-2718.246474,2431.107762,-9303.294269
824.309833,3656.232933,-1339.980656,-9437.292334
824.312416,-7618.747158,2450.250342,-8709.874264
824.314999,-2565.105827,4938.785846,-8901.300072
824.317582,5723.631659,555.134843,-7465.606512
824.320165,650.847747,-5876.772306,-7503.891674
824.322748,2124.826469,842.273555,-9207.581365
824.325331,3790.230998,2890.529701,-7810.172966
824.327914,-3349.951640,-612.562586,-8518.448456
824.330497,-1512.263883,-229.710970,-8595.018779
824.333080,4383.651003,765.703232,-8288.737486
824.335663,-5149.354235,-918.843878,-7944.171032
824.338246,-5187.639397,4651.647134,-9073.583299
824.340828,4230.510357,1110.269686,-9399.007173
824.343411,5666.203917,1761.117434,-7714.460062
824.345994,1320.838075,-1397.408398,-8767.302006
824.348577,-2220.539373,1473.978722,-8901.300072
824.351160,3024.527766,-114.855485,-8614.161360
824.353743,-3981.656806,-1129.412267,-9303.294269
824.356326,-8633.303941,4402.793584,-9150.153622
824.358909,-287.138712,650.847747,-8575.876198
824.361492,-1952.543242,-2277.967115,-9456.434915
824.364075,-133.998066,1569.691626,-9188.438784
824.366658,-4019.941968,5666.203917,-7446.463931
824.369241,7101.897477,172.283227,-8652.446522
824.371824,-8059.026517,-1512.263883,-8614.161360
824.374406,8173.882002,5436.492947,-8882.157491
824.376989,4728.217458,-4689.932296,-8709.874264
824.379572,-3120.240670,-325.423874,-8786.444587
824.382155,1703.689691,3809.373579,-8480.163294
824.384738,-2565.105827,497.707101,-8958.727814
824.387327,-3541.377448,631.705166,-10164.710405
824.389916,2182.254211,3235.096155,-9035.298138
824.392504,6623.332957,-2182.254211,-7523.034254
824.395093,7274.180704,-5627.918755,-8173.882002
824.397682,-631.705166,2545.963246,-8939.585234
824.400270,459.421939,1837.687757,-8997.012976
824.402859,-1684.547110,-2469.392923,-9609.575562
824.405448,-5895.914886,861.416136,-8767.302006
824.408037,5455.635528,4728.217458,-8020.741355
824.410625,4919.643266,-1014.556782,-8843.872330
824.413214,-38.285162,-1167.697429,-8997.012976
824.415803,-1416.550979,2756.531635,-8135.596840
824.418391,8441.878133,-1971.685822,-9533.005238
824.420980,-5570.491013,2009.970984,-8863.014910
824.423569,-3503.092286,5474.778109,-9379.864592
824.426158,1722.832272,-3981.656806,-9934.999435
824.428746,-5417.350366,-1359.123237,-8767.302006
824.431335,765.703232,4364.508422,-9035.298138
824.433924,7063.612315,287.138712,-9877.571693
824.436512,-1531.406464,-1780.260014,-8461.020714
824.439101,2660.818731,-76.570323,-7580.461997
824.441690,7695.317482,210.568389,-8729.016845
824.444278,2928.814862,-267.996131,-9207.581365
824.446867,-3215.953574,2660.818731,-8250.452325
824.449456,5187.639397,-1339.980656,-9035.298138
824.452045,-114.855485,-1512.263883,-8824.729749
824.454633,-2086.541307,2718.246474,-8461.020714
824.457222,4900.500685,3426.521963,-9820.143950
824.459811,-5245.067139,-3541.377448,-9073.583299
824.462399,-3407.379382,2660.818731,-8135.596840
824.464988,7006.184573,-440.279358,-8863.014910
824.467577,612.562586,-3388.236802,-8939.585234
824.470166,5206.781978,-2986.242605,-8173.882002
824.472754,-2354.537438,5838.487144,-7848.458128
824.475343,-3943.371645,-248.853550,-9667.003304
824.477932,-8365.307810,172.283227,-9475.577496
824.480520,-2201.396792,3751.945837,-9131.011042
824.483109,9418.149754,-1416.550979,-8403.592971
824.485698,1875.972918,-1473.978722,-7216.752962
824.488287,-3637.090352,842.273555,-8346.165229
824.490792,918.843878,1339.980656,-10164.710405
824.493297,-2488.535504,-1301.695494,-9820.143950
824.495802,-5225.924558,5302.494882,-8307.880067
824.498308,2756.531635,497.707101,-8059.026517
824.500813,2622.533570,-4000.799387,-8671.589102
824.503318,325.423874,-593.420005,-9284.151688
824.505823,-210.568389,5359.922624,-9073.583299
824.508329,-4307.080680,-1493.121302,-8729.016845
824.510834,-6738.188442,-918.843878,-9284.151688
824.513339,3311.666478,3426.521963,-8767.302006
824.515844,-3790.230998,2124.826469,-8882.157491
824.518350,3675.375514,267.996131,-10011.569758
824.520855,-10317.851051,4479.363907,-9628.718142
824.523360,-2584.248408,1301.695494,-8671.589102
824.525865,4575.076811,-3081.955509,-9284.151688
824.528371,-3196.810994,3541.377448,-8422.735552
824.530876,-19.142581,2871.387120,-7523.034254
824.533381,1263.410333,-19.142581,-9245.866526
824.535886,-4862.215523,-976.271621,-9839.286531
824.538392,191.425808,2756.531635,-8059.026517
824.540897,2947.957443,57.427742,-9150.153622
824.543402,-10777.272990,2871.387120,-9169.296203
824.545907,-1493.121302,6010.770371,-8595.018779
824.548413,4938.785846,-2431.107762,-8843.872330
824.550918,-5015.356170,-1167.697429,-8231.309744
824.553423,7408.178770,4096.512291,-7714.460062
824.555929,5991.627790,-803.988394,-8269.594906
824.558434,-8250.452325,-1052.841944,-9628.718142
824.560939,-937.986459,5532.205851,-8729.016845
824.563444,-4441.078746,-861.416136,-8518.448456
824.565950,2163.111630,-4134.797453,-10088.140082
824.568455,2871.387120,4153.940034,-7618.747158
824.570960,8671.589102,497.707101,-7905.885870
824.573465,2201.396792,-3617.947771,-8958.727814
824.575971,-6393.621987,2392.822600,-9265.009107
824.578476,-2163.111630,3483.949706,-9705.288466
824.580981,1110.269686,-421.136778,-9169.296203
824.583486,535.992262,-459.421939,-7561.319416
824.585992,8939.585234,727.418070,-7848.458128
824.588497,3541.377448,-3196.810994,-9150.153622
824.591028,-3560.520029,899.701298,-9169.296203
824.593559,-1799.402595,2297.109696,-8805.587168
824.596090,2737.389054,-1244.267752,-8499.305875
824.598622,4919.643266,669.990328,-8193.024582
824.601153,3120.240670,3369.094221,-8690.731683
824.603684,1493.121302,-555.134843,-9399.007173
824.606215,-4747.360038,-1895.115499,-9475.577496
824.608746,-3177.668413,3694.518094,-9303.294269
824.611278,-19.142581,1914.258080,-9111.868461
824.613809,7006.184573,-1378.265818,-8939.585234
824.616340,-4957.928427,478.564520,-9399.007173
824.618871,-1875.972918,3771.088418,-8365.307810
824.621402,4383.651003,19.142581,-9265.009107
824.623933,-3388.236802,248.853550,-8748.159426
824.626465,2277.967115,765.703232,-7503.891674
824.628996,4900.500685,-784.845813,-8575.876198
824.631527,593.420005,727.418070,-8997.012976
824.634058,1914.258080,3943.371645,-8307.880067
824.636589,2565.105827,210.568389,-8480.163294
824.639121,3560.520029,-2373.680019,-9016.155557
824.641652,-421.136778,3943.371645,-8786.444587
824.644183,-3732.803256,1416.550979,-8786.444587
824.646714,842.273555,-2201.396792,-9341.579430
824.649245,842.273555,-535.992262,-8748.159426
824.651776,133.998066,1837.687757,-7714.460062
824.654308,9360.722011,-1148.554848,-9494.720077
824.656839,-11102.696864,995.414202,-8537.591037
824.659370,-1971.685822,2163.111630,-8365.307810
824.661901,-918.843878,1263.410333,-9934.999435
824.664432,-3388.236802,478.564520,-8958.727814
824.666964,4881.358104,3024.527766,-8135.596840
824.669495,7810.172966,-1282.552914,-7733.602643
824.672026,-2469.392923,-3062.812928,-8116.454259
824.674557,-3522.234867,5895.914886,-8977.870395
824.677088,1493.121302,2335.394858,-9552.147819
824.679619,-4536.791650,-2967.100024,-9169.296203
824.682151,-957.129040,2029.113565,-7982.456194
824.684682,7293.323285,765.703232,-7944.171032
824.687213,5608.776174,0.000000,-8652.446522
824.689744,-2852.244539,-2067.398726,-8346.165229
824.692288,478.564520,2201.396792,-8575.876198
824.694838,-1990.828403,287.138712,-9456.434915
824.697388,4000.799387,1282.552914,-8786.444587
824.699938,-2756.531635,1473.978722,-8518.448456
824.702488,-3024.527766,-2641.676150,-11332.407834
824.705039,-8441.878133,2526.820666,-9590.432981
824.707589,-2373.680019,4747.360038,-8212.167163
824.710139,4345.365842,-3809.373579,-9724.431046
824.712689,-5761.916821,-5091.926493,-8939.585234
824.715239,-8154.739421,1512.263883,-7427.321350
824.717789,9437.292334,3177.668413,-8537.591037
824.720340,2699.103893,-3349.951640,-8901.300072
824.722890,-4555.934230,1531.406464,-7963.313613
824.725440,-1607.976787,1856.830338,-8384.450390
824.727990,-421.136778,1282.552914,-9437.292334
824.730540,-3579.662610,2756.531635,-8518.448456
824.733090,-459.421939,-1684.547110,-8212.167163
824.735641,5608.776174,-3254.238736,-9571.290400
824.738191,-2718.246474,2794.816797,-7542.176835
824.740741,-2009.970984,3981.656806,-9073.583299
824.743291,287.138712,-2029.113565,-9858.429112
824.745841,-8384.450390,650.847747,-8997.012976
824.748391,76.570323,2507.678085,-8920.442653
824.750942,10911.271056,287.138712,-8193.024582
824.753492,5800.201982,-4000.799387,-7982.456194
824.756042,-1186.840010,3120.240670,-8212.167163
824.758592,-2143.969050,-363.709035,-9667.003304
824.761142,-1780.260014,-3215.953574,-9724.431046
824.763692,-5666.203917,4613.361973,-8116.454259
824.766243,7369.893608,-344.566454,-7925.028451
824.768793,9284.151688,-3771.088418,-8346.165229
824.771343,-2986.242605,861.416136,-8403.592971
824.773893,2086.541307,3120.240670,-9303.294269
824.776443,133.998066,-1378.265818,-9762.716208
824.778993,-7580.461997,3024.527766,-8652.446522
824.781544,1550.549045,-1569.691626,-8518.448456
824.784094,7944.171032,-4173.082614,-9552.147819
824.786644,-5130.211654,2737.389054,-8346.165229
824.789194,-8154.739421,5723.631659,-10011.569758
824.791744,-3751.945837,-1263.410333,-10049.854920
824.794307,-363.709035,-2469.392923,-7216.752962
824.796869,8078.169098,3215.953574,-8805.587168
824.799431,5474.778109,1378.265818,-9265.009107
824.801993,-2679.961312,-2928.814862,-7657.032320
824.804556,3349.951640,-516.849682,-8805.587168
824.807118,4134.797453,344.566454,-9954.142016
824.809680,-727.418070,-1205.982590,-8307.880067
824.812243,-7389.036189,4326.223261,-8441.878133
824.814805,5359.922624,-2163.111630,-10145.567824
824.817367,2143.969050,-4230.510357,-8595.018779
824.819929,-4555.934230,3847.658741,-7982.456194
824.822492,6029.912952,2852.244539,-9858.429112
824.825054,-3043.670347,-4000.799387,-9150.153622
824.827616,-5627.918755,172.283227,-8633.303941
824.830179,7197.610381,765.703232,-9418.149754
824.832741,38.285162,-2239.681954,-8537.591037
824.835303,3120.240670,-2009.970984,-8250.452325
824.837865,-2431.107762,4441.078746,-8614.161360
824.840428,-4919.643266,1129.412267,-9724.431046
824.842990,-10107.282662,631.705166,-9035.298138
824.845552,-478.564520,3158.525832,-8824.729749
824.848114,10815.558152,-1646.261949,-8269.594906
824.850677,2775.674216,-1129.412267,-6814.758765
824.853239,-1512.263883,-306.281293,-8078.169098
824.855801,1359.123237,2507.678085,-9705.288466
824.858364,-1895.115499,2258.824534,-9035.298138
824.860926,-1033.699363,2967.100024,-8116.454259
824.863488,3062.812928,-1263.410333,-8116.454259
824.866050,4287.938099,-2641.676150,-8307.880067
824.868613,-708.275490,2622.533570,-8729.016845
824.871175,-1550.549045,5168.496816,-9590.432981
824.873737,-3158.525832,-1052.841944,-8977.870395
824.876300,-3081.955509,-803.988394,-8059.026517
824.878862,7293.323285,3043.670347,-9035.298138
824.881424,4919.643266,-57.427742,-8001.598774
824.883986,8250.452325,-727.418070,-7944.171032
824.886549,-6604.190376,3560.520029,-8633.303941
824.889111,-5493.920690,-995.414202,-8863.014910
824.891673,-918.843878,-5647.061336,-9322.436850
824.894236,-1014.556782,6585.047795,-8575.876198
824.896807,1569.691626,1856.830338,-8154.739421
824.899378,-1512.263883,-2603.390989,-9073.583299
824.901950,-2794.816797,497.707101,-8882.157491
824.904521,1282.552914,2163.111630,-8441.878133
824.907093,-4211.367776,-765.703232,-9437.292334
824.909664,-5723.631659,1397.408398,-8958.727814
824.912235,-1780.260014,4211.367776,-8901.300072
824.914807,2967.100024,-3292.523898,-9284.151688
824.917378,-3120.240670,555.134843,-7944.171032
824.919950,612.562586,2526.820666,-8824.729749
824.922521,-2431.107762,114.855485,-9035.298138
824.925093,-1378.265818,1473.978722,-9437.292334
824.927664,-3273.381317,2297.109696,-9245.866526
824.930235,4479.363907,765.703232,-8346.165229
824.932807,4096.512291,-2354.537438,-8786.444587
824.935378,-4307.080680,4747.360038,-7886.743290
824.937950,2067.398726,1646.261949,-9705.288466
824.940521,803.988394,-3311.666478,-9915.856854
824.943093,-2239.681954,3981.656806,-8039.883936
824.945664,3924.229064,3311.666478,-7408.178770
824.948235,8843.872330,-1397.408398,-8327.022648
824.950807,-2277.967115,210.568389,-9035.298138
824.953378,95.712904,4383.651003,-9131.011042
824.955950,2450.250342,-861.416136,-8652.446522
824.958521,-114.855485,-593.420005,-8039.883936
824.961092,3847.658741,3885.943902,-7791.030386
824.963664,8403.592971,-650.847747,-9399.007173
824.966235,-7427.321350,-3215.953574,-9360.722011
824.968807,-2354.537438,3866.801322,-8939.585234
824.971378,8537.591037,2699.103893,-8193.024582
824.973950,1722.832272,1818.545176,-8327.022648
824.976521,-2182.254211,5953.342629,-8786.444587
824.979099,5704.489078,-4000.799387,-8461.020714
824.981678,3407.379382,-3617.947771,-8977.870395
824.984257,-2756.531635,1091.127106,-9341.579430
824.986835,2565.105827,3962.514226,-8652.446522
824.989414,1895.115499,-1627.119368,-8537.591037
824.991992,-2775.674216,2182.254211,-8518.448456
824.994571,6336.194245,2545.963246,-8422.735552
824.997149,4192.225195,-2239.681954,-8824.729749
824.999728,516.849682,574.277424,-8250.452325
825.002306,1952.543242,4747.360038,-8097.311678
825.004885,1110.269686,-459.421939,-9590.432981
825.007463,-3809.373579,899.701298,-8499.305875
825.010042,3369.094221,2813.959378,-8939.585234
825.012620,-976.271621,-2258.824534,-8384.450390
825.015199,823.130974,440.279358,-7810.172966
825.017778,-765.703232,3713.660675,-8518.448456
825.020356,95.712904,-1014.556782,-9456.434915
825.022935,229.710970,-3388.236802,-9609.575562
825.025513,-3732.803256,4594.219392,-7944.171032
825.028092,3905.086483,3062.812928,-8001.598774
825.030670,-1684.547110,-4000.799387,-9475.577496
825.033249,-7044.469734,-3369.094221,-10126.425243
825.035827,-7216.752962,2335.394858,-9150.153622
825.038406,3235.096155,3024.527766,-7963.313613
825.040984,-363.709035,-2603.390989,-8020.741355
825.043563,19.142581,555.134843,-9169.296203
825.046141,3158.525832,-1435.693560,-9533.005238
825.048720,-5149.354235,1205.982590,-8384.450390
825.051299,-708.275490,2565.105827,-7274.180704
825.053877,11026.126541,-4230.510357,-8461.020714
825.056456,2871.387120,-2105.683888,-7733.602643
825.059034,-1397.408398,-1359.123237,-8307.880067
825.061613,2431.107762,1588.834206,-8729.016845
825.064191,-4689.932296,1339.980656,-8135.596840
825.066770,-4039.084549,2469.392923,-8824.729749
825.069348,3522.234867,-153.140646,-9188.438784
825.071927,-1129.412267,-1512.263883,-7925.028451
825.074505,-3905.086483,3369.094221,-8499.305875
825.077084,-861.416136,4153.940034,-9303.294269
825.079662,631.705166,-1588.834206,-9016.155557
825.082193,-3196.810994,-1091.127106,-8461.020714
825.084724,-2526.820666,957.129040,-8269.594906
825.087255,9265.009107,746.560651,-8652.446522
825.089786,-746.560651,-899.701298,-8441.878133
825.092317,-6642.475538,2775.674216,-8997.012976
825.094847,3522.234867,382.851616,-8843.872330
825.097378,-8939.585234,-421.136778,-8480.163294
825.099909,1780.260014,6106.483275,-9379.864592
825.102440,11179.267187,-1741.974853,-8327.022648
825.104971,9839.286531,-5225.924558,-7791.030386
825.107502,-3541.377448,612.562586,-8441.878133
825.110032,-4096.512291,3541.377448,-9667.003304
825.112563,-746.560651,-1531.406464,-10260.423309
825.115094,-2143.969050,1837.687757,-8901.300072
825.117625,6604.190376,-803.988394,-7848.458128
825.120156,1301.695494,-2105.683888,-8614.161360
825.122687,-6259.623922,2411.965181,-9245.866526
825.125217,3675.375514,2411.965181,-9475.577496
825.127748,-248.853550,-1875.972918,-9265.009107
825.130279,-2775.674216,-1320.838075,-8480.163294
825.132810,1033.699363,3617.947771,-7771.887805
825.135341,4019.941968,248.853550,-9992.427178
825.137872,-10470.991698,-401.994197,-10949.556218
825.140402,-248.853550,267.996131,-7886.743290
825.142933,13935.798822,-459.421939,-7810.172966
825.145464,5072.783912,-1856.830338,-8078.169098
825.147995,-2411.965181,3694.518094,-8824.729749
825.150526,2545.963246,784.845813,-9456.434915
825.153057,2756.531635,-2641.676150,-8748.159426
825.155588,-325.423874,-1856.830338,-9035.298138
825.158118,-2105.683888,4402.793584,-9341.579430
825.160649,3905.086483,-3196.810994,-8690.731683
825.163180,-287.138712,-2641.676150,-8461.020714
825.165711,1588.834206,2392.822600,-8767.302006
825.168242,4728.217458,995.414202,-9418.149754
825.170773,-8595.018779,153.140646,-9073.583299
825.173303,-516.849682,0.000000,-9073.583299
825.175834,7274.180704,-3541.377448,-8882.157491
825.178365,-7216.752962,-3885.943902,-8729.016845
825.180896,3330.809059,3330.809059,-8250.452325
825.183441,3981.656806,1454.836141,-7886.743290
825.185987,-7925.028451,-4268.795518,-9533.005238
825.188532,-10394.421374,5742.774240,-9399.007173
825.191078,2813.959378,3101.098090,-9341.579430
825.193623,4268.795518,-5091.926493,-9073.583299
825.196169,-2488.535504,1110.269686,-7408.178770
825.198714,2316.252277,3062.812928,-8365.307810
825.201259,-1607.976787,-1665.404530,-9609.575562
825.203805,-3043.670347,-114.855485,-8575.876198
825.206350,1646.261949,-1301.695494,-8441.878133
825.208896,2737.389054,2067.398726,-8173.882002
825.211441,-612.562586,2373.680019,-8039.883936
825.213987,344.566454,1416.550979,-8939.585234
825.216532,1990.828403,-3273.381317,-9322.436850
825.219078,-5493.920690,2947.957443,-8633.303941
825.221623,-8977.870395,4957.928427,-9743.573627
825.224168,976.271621,-191.425808,-8920.442653
825.226714,-6259.623922,-3445.664544,-10432.706536
825.229259,-5493.920690,2277.967115,-8901.300072
825.231805,1588.834206,3905.086483,-8269.594906
825.234350,2699.103893,-784.845813,-8652.446522
825.236896,-3905.086483,229.710970,-9111.868461
825.239441,3369.094221,2297.109696,-8652.446522
825.241987,4153.940034,-2469.392923,-7695.317482
825.244532,-2316.252277,325.423874,-8327.022648
825.247077,-1531.406464,1550.549045,-9418.149754
825.249623,-1397.408398,1301.695494,-9073.583299
825.252168,-1741.974853,-918.843878,-8882.157491
825.254714,-3330.809059,1837.687757,-8671.589102
825.257259,3866.801322,1569.691626,-8116.454259
825.259805,440.279358,-1990.828403,-9341.579430
825.262350,-9360.722011,2316.252277,-8767.302006
825.264896,6336.194245,2143.969050,-9054.440718
825.267441,-3464.807125,-3522.234867,-9533.005238
825.269986,-1722.832272,6661.618118,-8039.883936
825.272532,12787.243974,325.423874,-8212.167163
825.275077,-1320.838075,-1627.119368,-8193.024582
825.277623,-4019.941968,306.281293,-9360.722011
825.280168,2163.111630,1531.406464,-9418.149754
825.282714,1569.691626,-19.142581,-8288.737486
825.285271,1493.121302,-708.275490,-7810.172966
825.287828,9284.151688,-957.129040,-8422.735552
825.290385,-1014.556782,-3445.664544,-9399.007173
825.292942,-4843.072942,5072.783912,-9131.011042
825.295500,2833.101958,3981.656806,-9169.296203
825.298057,-172.283227,-3924.229064,-8920.442653
825.300614,-4019.941968,191.425808,-8001.598774
825.303171,5647.061336,1646.261949,-8078.169098
825.305728,995.414202,2986.242605,-8690.731683
825.308286,-2086.541307,-1493.121302,-9686.145885
825.310843,-2143.969050,574.277424,-8480.163294
825.313400,3790.230998,1339.980656,-8480.163294
825.315957,4804.787781,-2163.111630,-8614.161360
825.318514,-2258.824534,95.712904,-8441.878133
825.321072,1244.267752,995.414202,-8843.872330
825.323629,3101.098090,-229.710970,-9035.298138
825.326186,-3311.666478,4843.072942,-8595.018779
825.328743,-344.566454,4268.795518,-8307.880067
825.331300,7944.171032,-6029.912952,-9188.438784
825.333858,3273.381317,-1263.410333,-8078.169098
825.336415,-306.281293,7637.889739,-7695.317482
825.338972,3809.373579,-689.132909,-9762.716208
825.341529,-2833.101958,-2143.969050,-8690.731683
825.344086,2163.111630,2201.396792,-8269.594906
825.346644,7829.315547,76.570323,-8480.163294
825.349201,3081.955509,899.701298,-7963.313613
825.351758,-4230.510357,-382.851616,-8575.876198
825.354315,-784.845813,1359.123237,-9494.720077
825.356872,708.275490,-1512.263883,-9513.862658
825.359430,-2297.109696,1990.828403,-7982.456194
825.361987,3694.518094,2718.246474,-8097.311678
825.364544,-727.418070,-3407.379382,-9628.718142
825.367101,-8824.729749,4709.074877,-9322.436850
825.369658,191.425808,3981.656806,-8805.587168
825.372215,5302.494882,-4938.785846,-8461.020714
825.374773,-363.709035,-2584.248408,-8078.169098
825.377330,-1741.974853,3617.947771,-8288.737486
825.379887,7714.460062,746.560651,-9073.583299
825.382444,-1761.117434,-2392.822600,-8288.737486
825.385001,-3905.086483,1914.258080,-7982.456194
825.387524,6087.340694,-516.849682,-8882.157491
825.390046,-8748.159426,-153.140646,-9399.007173
825.392568,-3751.945837,4747.360038,-9418.149754
825.395090,3579.662610,-248.853550,-9016.155557
825.397613,-5111.069074,-1435.693560,-8556.733618
825.400135,-5225.924558,1933.400661,-9131.011042
825.402657,2565.105827,2967.100024,-8958.727814
825.405179,-3062.812928,114.855485,-8173.882002
825.407701,-2794.816797,1435.693560,-8671.589102
825.410224,3981.656806,2009.970984,-8939.585234
825.412746,918.843878,-1244.267752,-8307.880067
825.415268,-2316.252277,1627.119368,-8384.450390
825.417790,746.560651,1052.841944,-9188.438784
825.420312,306.281293,-1014.556782,-8097.311678
825.422835,210.568389,133.998066,-8805.587168
825.425357,-9207.581365,2220.539373,-8403.592971
825.427879,7484.749093,2086.541307,-9360.722011
825.430401,3158.525832,-4173.082614,-8786.444587
825.432924,-3943.371645,2986.242605,-8690.731683
825.435446,4747.360038,1282.552914,-8575.876198
825.437968,-1359.123237,-267.996131,-8518.448456
825.440490,-3196.810994,2986.242605,-9628.718142
825.443012,4900.500685,-191.425808,-9399.007173
825.445535,-248.853550,-1225.125171,-7829.315547
825.448057,-765.703232,1646.261949,-7676.174901
825.450579,10547.562021,1741.974853,-8001.598774
825.453101,5972.485210,-5225.924558,-8863.014910
825.455624,-5627.918755,2067.398726,-8824.729749
825.458146,1837.687757,6221.338760,-8748.159426
825.460668,2029.113565,-4039.084549,-8365.307810
825.463190,-4728.217458,-669.990328,-8384.450390
825.465712,4039.084549,4823.930362,-8958.727814
825.468235,7082.754896,76.570323,-7733.602643
825.470757,6010.770371,-2009.970984,-8786.444587
825.473279,1990.828403,-1129.412267,-8307.880067
825.475801,5130.211654,1397.408398,-8461.020714
825.478323,5570.491013,-937.986459,-8384.450390
825.480846,-1378.265818,574.277424,-8250.452325
825.483368,689.132909,-593.420005,-9686.145885
825.485890,-3828.516160,2526.820666,-9379.864592
825.488428,-3483.949706,5915.057467,-8709.874264
825.490966,6183.053598,-2335.394858,-8882.157491
825.493504,7484.749093,-4728.217458,-8078.169098
825.496041,0.000000,-823.130974,-8422.735552
825.498579,727.418070,6757.331022,-9226.723946
825.501117,1397.408398,3292.523898,-8537.591037
825.503655,1971.685822,-4326.223261,-9284.151688
825.506193,-2871.387120,497.707101,-7982.456194
825.508731,8384.450390,2794.816797,-7657.032320
825.511268,-899.701298,-2029.113565,-9399.007173
825.513806,-8135.596840,2833.101958,-9513.862658
825.516344,1550.549045,-267.996131,-9322.436850
825.518882,-535.992262,-1359.123237,-8575.876198
825.521420,-4192.225195,3637.090352,-7925.028451
825.523957,440.279358,2086.541307,-9475.577496
825.526495,-4249.652938,574.277424,-9992.427178
825.529033,-6623.332957,3656.232933,-8556.733618
825.531571,5302.494882,-267.996131,-7886.743290
825.534109,3732.803256,-3388.236802,-8461.020714
825.536647,-4230.510357,1875.972918,-8614.161360
825.539184,1378.265818,4249.652938,-9245.866526
825.541722,2373.680019,-3120.240670,-8633.303941
825.544260,-421.136778,153.140646,-8327.022648
825.546798,-765.703232,2775.674216,-7293.323285
825.549336,3675.375514,669.990328,-8786.444587
825.551874,1607.976787,-574.277424,-9016.155557
825.554411,-6144.768437,2584.248408,-8480.163294
825.556949,306.281293,1014.556782,-8997.012976
825.559487,1225.125171,-842.273555,-9437.292334
825.562025,-5187.639397,5857.629725,-7963.313613
825.564563,7829.315547,2105.683888,-7982.456194
825.567100,2775.674216,-3694.518094,-8843.872330
825.569638,-5034.498750,-153.140646,-8173.882002
825.572176,1607.976787,4862.215523,-8786.444587
825.574714,1895.115499,-3196.810994,-9399.007173
825.577252,-6029.912952,-1339.980656,-8154.739421
825.579790,5111.069074,344.566454,-8709.874264
825.582327,-1780.260014,-574.277424,-8729.016845
825.584865,-2392.822600,2813.959378,-9724.431046
825.587403,-4039.084549,1129.412267,-9954.142016
825.589954,1665.404530,1531.406464,-8327.022648
825.592504,4077.369710,-937.986459,-8748.159426
825.595055,-3847.658741,4115.654872,-8365.307810
825.597605,2009.970984,478.564520,-9858.429112
825.600156,1588.834206,-3637.090352,-9705.288466
825.602706,-2737.389054,4077.369710,-7637.889739
825.605257,8767.302006,-861.416136,-7886.743290
825.607807,3062.812928,-5321.637462,-9533.005238
825.610358,-8977.870395,4287.938099,-9590.432981
825.612908,899.701298,4728.217458,-9131.011042
825.615459,3101.098090,-3483.949706,-8690.731683
825.618009,-3771.088418,-1703.689691,-9303.294269
825.620560,-1588.834206,2201.396792,-9513.862658
825.623110,-803.988394,1665.404530,-9992.427178
825.625661,-10432.706536,1473.978722,-10279.565890
825.628211,210.568389,2852.244539,-8614.161360
825.630762,7618.747158,-2067.398726,-8403.592971
825.633312,727.418070,861.416136,-8384.450390
825.635863,2660.818731,2220.539373,-8461.020714
825.638413,3407.379382,612.562586,-8614.161360
825.640964,861.416136,1550.549045,-8384.450390
825.643514,-861.416136,2239.681954,-8250.452325
825.646065,3732.803256,-1186.840010,-9111.868461
825.648615,7389.036189,-3464.807125,-8805.587168
825.651166,-1703.689691,2833.101958,-7599.604578
825.653716,172.283227,823.130974,-9188.438784
825.656267,2890.529701,-5111.069074,-9552.147819
825.658817,-6106.483275,689.132909,-9016.155557
825.661368,6163.911018,4211.367776,-8997.012976
825.663918,-2373.680019,382.851616,-8116.454259
825.666469,-10490.134278,669.990328,-9590.432981
825.669020,-10681.560086,2431.107762,-9724.431046
825.671570,3081.955509,689.132909,-9207.581365
825.674121,3617.947771,-1799.402595,-8346.165229
825.676671,-3235.096155,2565.105827,-7580.461997
825.679222,1454.836141,-1952.543242,-8997.012976
825.681772,-957.129040,-784.845813,-9475.577496
825.684323,-3962.514226,2488.535504,-9379.864592
825.686873,-191.425808,5819.344563,-8709.874264
825.689424,-1588.834206,-669.990328,-8288.737486
825.691982,-4249.652938,172.283227,-8633.303941
825.694542,976.271621,2450.250342,-8805.587168
825.697103,-593.420005,-2909.672282,-9207.581365
825.699664,-7925.028451,2488.535504,-7523.034254
825.702225,7350.751027,2469.392923,-7369.893608
825.704786,13304.093656,-2565.105827,-7944.171032
825.707347,-3541.377448,-631.705166,-8690.731683
825.709907,-6049.055533,4307.080680,-8882.157491
825.712468,4096.512291,-1435.693560,-8824.729749
825.715029,6661.618118,-3943.371645,-8288.737486
825.717590,2220.539373,210.568389,-8231.309744
825.720151,1454.836141,114.855485,-8882.157491
825.722712,-2009.970984,-689.132909,-8633.303941
825.725272,-5972.485210,1531.406464,-8403.592971
825.727833,2813.959378,3388.236802,-9533.005238
825.730394,-2775.674216,-708.275490,-8997.012976
825.732955,-5072.783912,3139.383251,-7829.315547
825.735516,10317.851051,1895.115499,-8039.883936
825.738077,-3254.238736,-3158.525832,-7944.171032
825.740638,727.418070,516.849682,-9322.436850
825.743198,5781.059402,2622.533570,-7714.460062
825.745759,10566.704602,-5627.918755,-8365.307810
825.748320,-1646.261949,-1416.550979,-8059.026517
825.750881,-3694.518094,4192.225195,-8039.883936
825.753442,4460.221326,-1761.117434,-10279.565890
825.756003,-1971.685822,-1263.410333,-9686.145885
825.758563,-1895.115499,5321.637462,-7427.321350
825.761124,7121.040058,-1225.125171,-7963.313613
825.763685,3081.955509,-6163.911018,-9245.866526
825.766246,-2679.961312,-593.420005,-9303.294269
825.768807,555.134843,4747.360038,-8805.587168
825.771368,3809.373579,-1110.269686,-8173.882002
825.773928,-4977.071008,2105.683888,-8748.159426
825.776489,-3062.812928,2163.111630,-9437.292334
825.779050,1856.830338,-1914.258080,-9590.432981
825.781611,-1761.117434,1359.123237,-8882.157491
825.784172,382.851616,4843.072942,-8288.737486
825.786733,4364.508422,-1148.554848,-9035.298138
825.789293,-382.851616,-1971.685822,-8843.872330
825.791854,-2297.109696,-1952.543242,-9207.581365
825.794423,1895.115499,1167.697429,-9207.581365
825.796991,-1493.121302,3062.812928,-8575.876198
825.799559,-2029.113565,-76.570323,-8729.016845
825.802127,9475.577496,-3675.375514,-9111.868461
825.804696,669.990328,-803.988394,-8039.883936
825.807264,-2603.390989,3905.086483,-8575.876198
825.809832,5264.209720,-1952.543242,-8863.014910
825.812400,-2488.535504,-4402.793584,-9475.577496
825.814969,-287.138712,401.994197,-7810.172966
825.817537,3885.943902,8250.452325,-6833.901346
825.820105,784.845813,-3273.381317,-9609.575562
825.822674,-11236.694930,1416.550979,-9552.147819
825.825242,-1339.980656,4249.652938,-9016.155557
825.827810,6967.899411,-2124.826469,-8863.014910
825.830378,-3809.373579,-344.566454,-7503.891674
825.832947,-2392.822600,2220.539373,-8288.737486
825.835515,2641.676150,344.566454,-9877.571693
825.838083,650.847747,-4479.363907,-9265.009107
825.840651,-3790.230998,4957.928427,-7657.032320
825.843220,3445.664544,3311.666478,-7848.458128
825.845788,210.568389,-3866.801322,-8958.727814
825.848356,-2316.252277,995.414202,-8365.307810
825.850924,5915.057467,995.414202,-8001.598774
825.853493,6125.625856,-2737.389054,-7446.463931
825.856061,3483.949706,401.994197,-6451.049730
825.858629,6431.907149,3043.670347,-8039.883936
825.861198,-1799.402595,-2354.537438,-9360.722011
825.863766,-6833.901346,382.851616,-8499.305875
825.866334,-1512.263883,2679.961312,-8307.880067
825.868902,5168.496816,-4670.789715,-9245.866526
825.871471,-4192.225195,-19.142581,-8556.733618
825.874039,-3637.090352,5474.778109,-8365.307810
825.876607,2967.100024,-1244.267752,-8805.587168
825.879175,-784.845813,-1148.554848,-8901.300072
825.881744,-3617.947771,3464.807125,-8365.307810
825.884312,2699.103893,1282.552914,-8365.307810
825.886880,6987.041992,-2584.248408,-8920.442653
825.889448,-7618.747158,-1301.695494,-7465.606512
825.892017,9188.438784,2277.967115,-9265.009107
825.894585,6642.475538,-4517.649069,-9150.153622
825.897159,-6374.479406,918.843878,-8671.589102
825.899734,1933.400661,2565.105827,-9073.583299
825.902308,861.416136,-191.425808,-8614.161360
825.904882,-5245.067139,1569.691626,-9188.438784
825.907457,3369.094221,2603.390989,-9705.288466
825.910031,4326.223261,-1454.836141,-8384.450390
825.912605,363.709035,-1473.978722,-7752.745224
825.915179,-1588.834206,957.129040,-9150.153622
825.917754,2411.965181,2775.674216,-9801.001370
825.920328,-1033.699363,-727.418070,-8958.727814
825.922902,-1799.402595,1320.838075,-8614.161360
825.925477,9303.294269,-1799.402595,-7293.323285
825.928051,11830.114934,-2277.967115,-8020.741355
825.930625,-2488.535504,6029.912952,-9533.005238
825.933200,-3024.527766,-535.992262,-9954.142016
825.935774,-612.562586,-1569.691626,-8346.165229
825.938348,-2277.967115,-76.570323,-8633.303941
825.940922,4421.936165,6125.625856,-9150.153622
825.943497,6604.190376,4862.215523,-8461.020714
825.946071,-5187.639397,-3426.521963,-8939.585234
825.948645,1148.554848,382.851616,-9131.011042
825.951220,8786.444587,1741.974853,-8709.874264
825.953794,-4594.219392,1875.972918,-7867.600709
825.956368,2163.111630,631.705166,-9054.440718
825.958943,7676.174901,-2029.113565,-9954.142016
825.961517,-5493.920690,-440.279358,-8422.735552
825.964091,-153.140646,5685.346498,-9322.436850
825.966666,-4326.223261,-574.277424,-8748.159426
825.969240,-1703.689691,-2048.256146,-8154.739421
825.971814,1167.697429,3560.520029,-8250.452325
825.974388,2469.392923,2622.533570,-8537.591037
825.976963,612.562586,-3062.812928,-8843.872330
825.979537,-1052.841944,-267.996131,-8307.880067
825.982111,1722.832272,3790.230998,-8154.739421
825.984686,-2239.681954,-1186.840010,-9035.298138
825.987260,-7484.749093,1473.978722,-9437.292334
825.989834,-2124.826469,-2201.396792,-9341.579430
825.992409,3215.953574,-5589.633594,-8480.163294
825.994983,-1914.258080,3349.951640,-7695.317482
825.997557,-1875.972918,4402.793584,-8595.018779
826.000102,-4173.082614,-2756.531635,-10068.997501
826.002646,-3024.527766,-3062.812928,-9322.436850
826.005191,-1052.841944,6795.616184,-7599.604578
826.007735,1167.697429,2699.103893,-7446.463931
826.010280,-440.279358,-5436.492947,-8997.012976
826.012824,-4594.219392,248.853550,-9016.155557
826.015369,172.283227,4594.219392,-8020.741355
826.017913,8824.729749,-421.136778,-8078.169098
826.020458,-2411.965181,-1071.984525,-8365.307810
826.023002,-1454.836141,3828.516160,-8671.589102
826.025547,1646.261949,-1320.838075,-8767.302006
826.028091,-1971.685822,2507.678085,-9150.153622
826.030636,-3215.953574,1607.976787,-8690.731683
826.033180,-1225.125171,-382.851616,-8288.737486
826.035725,2641.676150,803.988394,-8805.587168
826.038269,-9188.438784,2967.100024,-8173.882002
826.040814,12078.968485,363.709035,-9360.722011
826.043358,5551.348432,-4441.078746,-8307.880067
826.045903,-2947.957443,1378.265818,-8059.026517
826.048448,4843.072942,842.273555,-8997.012976
826.050992,-1148.554848,-1205.982590,-8690.731683
826.053537,-4536.791650,2947.957443,-9303.294269
826.056081,3043.670347,1933.400661,-9494.720077
826.058626,937.986459,-1703.689691,-8365.307810
826.061170,-1244.267752,-2105.683888,-8307.880067
826.063715,-803.988394,1588.834206,-9169.296203
826.066259,1282.552914,1761.117434,-9590.432981
826.068804,-4728.217458,76.570323,-8939.585234
826.071348,2029.113565,478.564520,-7810.172966
826.073893,12021.540742,-2469.392923,-7140.182638
826.076437,440.279358,1531.406464,-7025.327154
826.078982,-2545.963246,2871.387120,-9915.856854
826.081526,4766.502619,-4613.361973,-9915.856854
826.084071,689.132909,-5819.344563,-7561.319416
826.086615,-114.855485,5053.641331,-8135.596840
826.089160,7389.036189,5493.920690,-8212.167163
826.091704,1531.406464,-6604.190376,-8575.876198
826.094249,-5340.780043,2009.970984,-9418.149754
826.096793,5972.485210,3541.377448,-8824.729749
826.099338,3598.805190,-708.275490,-7542.176835
826.101892,-3598.805190,-191.425808,-8441.878133
826.104447,5647.061336,1225.125171,-9877.571693
826.107002,861.416136,957.129040,-8116.454259
826.109556,-574.277424,440.279358,-9207.581365
826.112111,-1780.260014,899.701298,-8288.737486
826.114666,6125.625856,421.136778,-7618.747158
826.117220,-1512.263883,-1741.974853,-9303.294269
826.119775,-3541.377448,2775.674216,-9322.436850
826.122330,3177.668413,-1588.834206,-8748.159426
826.124884,-535.992262,-1569.691626,-8384.450390
826.127439,-2947.957443,4479.363907,-8384.450390
826.129994,-478.564520,-1359.123237,-9418.149754
826.132548,-5551.348432,784.845813,-9284.151688
826.135103,-4575.076811,2679.961312,-9016.155557
826.137658,3349.951640,9686.145885,-8001.598774
826.140212,2699.103893,-2871.387120,-8116.454259
826.142767,-3196.810994,-2373.680019,-8461.020714
826.145321,4115.654872,1244.267752,-8384.450390
826.147876,7637.889739,-38.285162,-8365.307810
826.150431,4747.360038,2392.822600,-7925.028451
826.152985,-2890.529701,1129.412267,-8020.741355
826.155540,-2182.254211,-4938.785846,-9437.292334
826.158095,-5417.350366,708.275490,-10145.567824
826.160649,-8097.311678,1473.978722,-8958.727814
826.163204,459.421939,4192.225195,-9054.440718
826.165759,-803.988394,-497.707101,-8556.733618
826.168313,-6010.770371,2258.824534,-8480.163294
826.170868,382.851616,-1531.406464,-9686.145885
826.173423,1263.410333,-191.425808,-9188.438784
826.175977,-3943.371645,5934.200048,-7733.602643
826.178532,1339.980656,-2679.961312,-9035.298138
826.181086,-210.568389,267.996131,-9035.298138
826.183650,-6010.770371,2335.394858,-8977.870395
826.186213,-555.134843,1971.685822,-9858.429112
826.188777,6068.198114,1588.834206,-8212.167163
826.191340,1339.980656,-2852.244539,-8059.026517
826.193903,689.132909,2679.961312,-8556.733618
826.196467,1741.974853,-746.560651,-9016.155557
826.199030,-497.707101,1818.545176,-9341.579430
826.201593,2220.539373,2584.248408,-8633.303941
826.204157,5321.637462,-2967.100024,-8020.741355
826.206720,-248.853550,-1416.550979,-8709.874264
826.209283,-5206.781978,287.138712,-9341.579430
826.211847,631.705166,4192.225195,-9609.575562
826.214410,-1129.412267,-1454.836141,-8824.729749
826.216973,-7829.315547,4421.936165,-9035.298138
826.219537,-114.855485,842.273555,-8901.300072
826.222100,-7427.321350,-1607.976787,-9877.571693
826.224664,-555.134843,2909.672282,-9245.866526
826.227227,9992.427178,2048.256146,-7637.889739
826.229790,5302.494882,-727.418070,-7101.897477
826.232354,5647.061336,4364.508422,-8499.305875
826.234917,2890.529701,153.140646,-7905.885870
826.237480,5513.063270,-3751.945837,-9092.725880
826.240044,401.994197,746.560651,-8977.870395
826.242607,1722.832272,3924.229064,-7771.887805
826.245170,4173.082614,880.558717,-8173.882002
826.247734,-191.425808,-2373.680019,-9628.718142
826.250297,-574.277424,4326.223261,-8365.307810
826.252860,2813.959378,-2507.678085,-8748.159426
826.255424,3694.518094,-2373.680019,-8307.880067
826.257987,-995.414202,3081.955509,-7657.032320
826.260551,1129.412267,1741.974853,-9379.864592
826.263114,-2928.814862,-1416.550979,-9647.860723
826.265677,-3235.096155,918.843878,-8767.302006
826.268241,5857.629725,-287.138712,-8250.452325
826.270804,229.710970,-918.843878,-8020.741355
826.273367,-8709.874264,1052.841944,-9092.725880
826.275931,-1569.691626,4709.074877,-9724.431046
826.278494,306.281293,-1895.115499,-8958.727814
826.281057,-1110.269686,-3503.092286,-8231.309744
826.283621,-1225.125171,-3656.232933,-7829.315547
826.286184,3924.229064,1435.693560,-8307.880067
826.288747,-976.271621,1282.552914,-8461.020714
826.291311,-1071.984525,4268.795518,-7599.604578
826.293874,8709.874264,-1569.691626,-8135.596840
826.296438,535.992262,-4460.221326,-7867.600709
826.299001,-4517.649069,3445.664544,-8767.302006
826.301564,1416.550979,3675.375514,-8575.876198
826.304128,2335.394858,0.000000,-8001.598774
826.306698,-2009.970984,-555.134843,-8767.302006
826.309267,344.566454,784.845813,-8269.594906
826.311837,3809.373579,-2067.398726,-7791.030386
826.314407,401.994197,5474.778109,-8748.159426
826.316977,784.845813,306.281293,-9322.436850
826.319547,306.281293,-3617.947771,-8173.882002
826.322117,-344.566454,421.136778,-8384.450390
826.324687,-2431.107762,3847.658741,-8307.880067
826.327257,7733.602643,306.281293,-9915.856854
826.329827,-7484.749093,-2718.246474,-9973.284597
826.332397,-5091.926493,727.418070,-8250.452325
826.334967,4230.510357,3177.668413,-9073.583299
826.337537,-2833.101958,823.130974,-9131.011042
826.340106,-6087.340694,899.701298,-9762.716208
826.342676,4996.213589,516.849682,-9284.151688
826.345246,2794.816797,-842.273555,-7905.885870
826.347816,459.421939,2699.103893,-8001.598774
826.350386,9111.868461,3235.096155,-8652.446522
826.352956,-1684.547110,-3866.801322,-9360.722011
826.355526,-6853.043926,5168.496816,-9399.007173
826.358096,-1952.543242,4919.643266,-8193.024582
826.360666,9073.583299,-957.129040,-7829.315547
826.363236,-2431.107762,363.709035,-7829.315547
826.365806,6623.332957,306.281293,-9303.294269
826.368376,9513.862658,-4192.225195,-8748.159426
826.370945,-2373.680019,-2526.820666,-8020.741355
826.373515,746.560651,9054.440718,-8614.161360
826.376085,1435.693560,-1933.400661,-9475.577496
826.378655,-6699.903280,-3311.666478,-9667.003304
826.381225,-12500.105262,1282.552914,-9628.718142
826.383795,2392.822600,4058.227130,-8748.159426
826.386365,1320.838075,1014.556782,-8116.454259
826.388940,-133.998066,497.707101,-9284.151688
826.391515,5187.639397,2947.957443,-8441.878133
826.394090,5761.916821,-1990.828403,-8556.733618
826.396665,-746.560651,0.000000,-7886.743290
826.399240,4498.506488,5015.356170,-7810.172966
826.401815,-3483.949706,-2699.103893,-9781.858789
826.404390,-12825.529136,1780.260014,-9571.290400
826.406965,-899.701298,861.416136,-8882.157491
826.409540,8786.444587,-95.712904,-8116.454259
826.412115,-5206.781978,-612.562586,-8078.169098
826.414690,-9360.722011,1512.263883,-9705.288466
826.417265,-689.132909,3215.953574,-9973.284597
826.419840,-3196.810994,516.849682,-8173.882002
826.422415,3981.656806,-1971.685822,-7791.030386
826.424990,574.277424,880.558717,-8403.592971
826.427565,-3120.240670,2871.387120,-8729.016845
826.430141,-12078.968485,2565.105827,-10145.567824
826.432716,-5647.061336,5015.356170,-10528.419440
826.435291,-1531.406464,-2105.683888,-8690.731683
826.437866,-8863.014910,57.427742,-8269.594906
826.440441,-4575.076811,6546.762634,-8863.014910
826.443016,8307.880067,-2182.254211,-8250.452325
826.445591,516.849682,-3713.660675,-8116.454259
826.448166,880.558717,2431.107762,-7963.313613
826.450741,5570.491013,-287.138712,-8307.880067
826.453316,-10585.847182,-1186.840010,-9150.153622
826.455891,-4479.363907,-153.140646,-9399.007173
826.458466,2182.254211,1244.267752,-8614.161360
826.461041,-4862.215523,-1014.556782,-9054.440718
826.463616,-10088.140082,4096.512291,-8920.442653
826.466191,1646.261949,1320.838075,-9820.143950
826.468766,-1378.265818,-4555.934230,-9743.573627
826.471341,2258.824534,5666.203917,-7082.754896
826.473916,14739.787216,-3445.664544,-7695.317482
826.476491,-172.283227,-3656.232933,-8614.161360
826.479066,-6489.334891,2775.674216,-8595.018779
826.481641,4804.787781,2488.535504,-9245.866526
826.484216,8709.874264,-899.701298,-7944.171032
826.486791,1186.840010,-2067.398726,-7274.180704
826.489366,2392.822600,478.564520,-9284.151688
826.491945,-4938.785846,-1895.115499,-10451.849117
826.494524,-2450.250342,114.855485,-9188.438784
826.497103,3407.379382,1856.830338,-7771.887805
826.499682,10911.271056,-2947.957443,-7599.604578
826.502261,5455.635528,-4498.506488,-6661.618118
826.504840,3081.955509,2967.100024,-8958.727814
826.507419,6106.483275,2775.674216,-8977.870395
826.509999,8001.598774,-5627.918755,-7561.319416
826.512578,-574.277424,-1186.840010,-8097.311678
826.515157,2488.535504,5264.209720,-9054.440718
826.517736,-95.712904,-3081.955509,-9379.864592
826.520315,-8116.454259,2297.109696,-9379.864592
826.522894,3924.229064,2354.537438,-9035.298138
826.525473,5245.067139,-535.992262,-7905.885870
826.528052,-3292.523898,2201.396792,-8633.303941
826.530631,-3120.240670,5187.639397,-9073.583299
826.533210,10490.134278,153.140646,-8939.585234
826.535789,-7791.030386,-3790.230998,-7542.176835
826.538368,842.273555,4421.936165,-7829.315547
826.540947,7503.891674,-2660.818731,-9552.147819
826.543526,-8575.876198,-172.283227,-8939.585234
826.546105,-612.562586,2258.824534,-8843.872330
826.548684,9092.725880,-2756.531635,-8595.018779
826.551263,-6623.332957,306.281293,-7848.458128
826.553842,-7350.751027,2603.390989,-9571.290400
826.556421,-1856.830338,4517.649069,-10011.569758
826.559000,-4287.938099,19.142581,-8154.739421
826.561579,2775.674216,-4536.791650,-7829.315547
826.564158,57.427742,6680.760699,-8575.876198
826.566737,3598.805190,-2411.965181,-9494.720077
826.569316,-2660.818731,535.992262,-8958.727814
826.571895,4938.785846,76.570323,-8518.448456
826.574474,-1895.115499,-2833.101958,-8595.018779
826.577053,-11638.689126,4804.787781,-8671.589102
826.579632,-2182.254211,4211.367776,-8901.300072
826.582211,-57.427742,-3483.949706,-9877.571693
826.584790,-6412.764568,153.140646,-8939.585234
826.587369,-5474.778109,4977.071008,-8499.305875
826.589948,172.283227,-1320.838075,-8671.589102
826.592527,1186.840010,-2756.531635,-9150.153622
826.595109,-1186.840010,4689.932296,-8709.874264
826.597692,1301.695494,-133.998066,-8135.596840
826.600274,2813.959378,-2258.824534,-7714.460062
826.602856,-5379.065205,535.992262,-7905.885870
826.605438,10222.138147,1588.834206,-9590.432981
826.608021,11102.696864,-3139.383251,-7599.604578
826.610603,-803.988394,-3713.660675,-7695.317482
826.613185,306.281293,1493.121302,-8671.589102
826.615767,-57.427742,880.558717,-8939.585234
826.618350,-5168.496816,2048.256146,-9992.427178
826.620932,574.277424,497.707101,-9686.145885
826.623514,5493.920690,-1435.693560,-7637.889739
826.626096,-631.705166,2928.814862,-7618.747158
826.628679,5398.207786,2947.957443,-9341.579430
826.631261,2928.814862,1301.695494,-9781.858789
826.633843,-3005.385186,-7159.325219,-8250.452325
826.636425,3139.383251,-803.988394,-7197.610381
826.639008,12863.814298,1971.685822,-7121.040058
826.641590,5513.063270,2009.970984,-7867.600709
826.644172,-2239.681954,3656.232933,-9820.143950
826.646754,708.275490,-459.421939,-9265.009107
826.649337,-497.707101,-5781.059402,-8173.882002
826.651919,-535.992262,7101.897477,-8422.735552
826.654501,4460.221326,2890.529701,-9609.575562
826.657083,1091.127106,937.986459,-9686.145885
826.659666,-7714.460062,-2239.681954,-9131.011042
826.662248,1129.412267,2641.676150,-8135.596840
826.664830,8193.024582,-76.570323,-8556.733618
826.667412,-4364.508422,1435.693560,-9111.868461
826.669995,4747.360038,2775.674216,-9303.294269
826.672577,650.847747,-3043.670347,-7350.751027
826.675159,-784.845813,612.562586,-7178.467800
826.677741,1550.549045,1339.980656,-9245.866526
826.680324,2392.822600,2411.965181,-8384.450390
826.682906,3196.810994,-3024.527766,-8097.311678
826.685488,2890.529701,-191.425808,-7350.751027
826.688070,1761.117434,2852.244539,-7848.458128
826.690653,-3369.094221,-937.986459,-9992.427178
826.693235,-7427.321350,4287.938099,-10222.138147
826.695817,-3866.801322,1646.261949,-8882.157491
826.698404,3215.953574,-4211.367776,-8078.169098
826.700988,-5417.350366,5474.778109,-7389.036189
826.703573,-14299.507858,6680.760699,-11064.411702
826.706158,-6431.907149,5034.498750,-9341.579430
826.708743,-3120.240670,-478.564520,-9858.429112
826.711328,4498.506488,2067.398726,-7216.752962
826.713912,7121.040058,-708.275490,-8116.454259
826.716497,-8135.596840,-133.998066,-9705.288466
826.719082,-4441.078746,5206.781978,-9207.581365
826.721667,2163.111630,-1339.980656,-8920.442653
826.724251,-3809.373579,-995.414202,-8288.737486
826.726836,-2431.107762,5302.494882,-8365.307810
826.729421,-1186.840010,3866.801322,-9456.434915
826.732006,133.998066,-2201.396792,-8786.444587
826.734590,1971.685822,-1091.127106,-8154.739421
826.737175,-4498.506488,3732.803256,-7503.891674
826.739760,6872.186507,708.275490,-9915.856854
826.742345,-2392.822600,-2641.676150,-10394.421374
826.744929,-1971.685822,6776.473603,-7771.887805
826.747514,7829.315547,-1607.976787,-7810.172966
826.750099,-3828.516160,861.416136,-8595.018779
826.752684,-6297.909083,2986.242605,-9647.860723
826.755268,3656.232933,516.849682,-10030.712339
826.757853,4536.791650,497.707101,-7446.463931
826.760438,555.134843,478.564520,-6967.899411
826.763023,8422.735552,-1990.828403,-9226.723946
826.765607,459.421939,612.562586,-9475.577496
826.768192,976.271621,2316.252277,-8346.165229
826.770777,8595.018779,-1531.406464,-7312.465866
826.773362,3579.662610,-2947.957443,-8346.165229
826.775946,-7867.600709,2105.683888,-9628.718142
826.778531,1454.836141,1799.402595,-9571.290400
826.781116,3541.377448,1301.695494,-9284.151688
826.783701,-2048.256146,248.853550,-7963.313613
826.786285,-229.710970,669.990328,-8346.165229
826.788870,4862.215523,-2086.541307,-9590.432981
826.791455,-1799.402595,2909.672282,-9686.145885
826.794040,-4728.217458,4039.084549,-8901.300072
826.796624,3292.523898,-2890.529701,-8461.020714
826.799209,-555.134843,-497.707101,-8537.591037
826.801795,-2067.398726,6719.045861,-9628.718142
826.804381,9092.725880,3866.801322,-9877.571693
826.806968,-9131.011042,-1550.549045,-7791.030386
826.809554,-9954.142016,3330.809059,-7925.028451
826.812140,6910.471669,2335.394858,-9169.296203
826.814726,1397.408398,-2794.816797,-8958.727814
826.817312,-2105.683888,1320.838075,-8078.169098
826.819898,9188.438784,114.855485,-7274.180704
826.822484,1588.834206,-555.134843,-7791.030386
826.825070,-9915.856854,153.140646,-9590.432981
826.827657,-4134.797453,4383.651003,-10068.997501
826.830243,-248.853550,-1397.408398,-9322.436850
826.832829,-5168.496816,-1225.125171,-7848.458128
826.835415,-363.709035,3005.385186,-7503.891674
826.838001,7312.465866,-765.703232,-9973.284597
826.840587,-2928.814862,-2450.250342,-8671.589102
826.843173,803.988394,2431.107762,-7714.460062
826.845760,1684.547110,133.998066,-8327.022648
826.848346,-8920.442653,1493.121302,-8824.729749
826.850932,-5474.778109,3866.801322,-9513.862658
826.853518,1531.406464,2009.970984,-9513.862658
826.856104,306.281293,-1990.828403,-8039.883936
826.858690,-7197.610381,2679.961312,-7733.602643
826.861276,1914.258080,2622.533570,-9628.718142
826.863862,3464.807125,-1263.410333,-9590.432981
826.866449,-7503.891674,-19.142581,-8403.592971
826.869035,784.845813,6565.905214,-7561.319416
826.871621,-1282.552914,-3732.803256,-8384.450390
826.874207,5685.346498,-401.994197,-9533.005238
826.876793,9150.153622,459.421939,-8575.876198
826.879379,13093.525267,-1990.828403,-7389.036189
826.881965,-2067.398726,-3330.809059,-7963.313613
826.884552,-5915.057467,3483.949706,-8920.442653
826.887138,6087.340694,2545.963246,-10662.417506
826.889724,-803.988394,-2641.676150,-9647.860723
826.892310,-2201.396792,2507.678085,-7178.467800
826.894896,6757.331022,2029.113565,-8384.450390
826.897482,-2775.674216,-1397.408398,-9877.571693
826.900068,-1301.695494,4383.651003,-10451.849117
826.902654,5264.209720,4460.221326,-7944.171032
826.905242,2277.967115,-3866.801322,-7503.891674
826.907829,401.994197,765.703232,-8441.878133
826.910417,1914.258080,2507.678085,-9245.866526
826.913004,4153.940034,-2488.535504,-9896.714274
826.915591,153.140646,689.132909,-8307.880067
826.918179,1435.693560,2029.113565,-7063.612315
826.920766,4460.221326,-1971.685822,-8843.872330
826.923353,-1914.258080,1971.685822,-10451.849117
826.925941,-4173.082614,4307.080680,-8652.446522
826.928528,248.853550,-1225.125171,-7905.885870
826.931115,3847.658741,-3962.514226,-9169.296203
826.933703,-6259.623922,4613.361973,-9475.577496
826.936290,6604.190376,3081.955509,-9915.856854
826.938878,-3503.092286,-5149.354235,-7982.456194
826.941465,-3024.527766,2354.537438,-6948.756830
826.944052,4345.365842,899.701298,-8805.587168
826.946640,-2775.674216,-1569.691626,-9839.286531
826.949227,-2392.822600,76.570323,-9188.438784
826.951814,3388.236802,899.701298,-6833.901346
826.954402,5187.639397,-19.142581,-7580.461997
826.956989,-8537.591037,-784.845813,-10126.425243
826.959576,-7695.317482,5761.916821,-10547.562021
826.962164,-1148.554848,-1531.406464,-9896.714274
826.964751,-1339.980656,1397.408398,-7140.182638
826.967339,-3043.670347,7848.458128,-7446.463931
826.969926,-1091.127106,-2641.676150,-10911.271056
826.972513,-3809.373579,-2622.533570,-10260.423309
826.975101,-1895.115499,6221.338760,-8212.167163
826.977688,1531.406464,4613.361973,-7159.325219
826.980275,1052.841944,-3062.812928,-8365.307810
826.982863,-7599.604578,1378.265818,-9858.429112
826.985450,1761.117434,4153.940034,-9743.573627
826.988037,5321.637462,-2048.256146,-7216.752962
826.990625,-3847.658741,2201.396792,-6910.471669
826.993212,976.271621,918.843878,-9590.432981
826.995800,1799.402595,1186.840010,-9858.429112
826.998387,-6987.041992,133.998066,-9150.153622
827.000974,-4632.504554,2411.965181,-7829.315547
827.003562,6967.899411,1301.695494,-9609.575562
827.006149,-4766.502619,-4134.797453,-10681.560086
827.008737,-3369.094221,7637.889739,-8575.876198
827.011324,12212.966550,76.570323,-8116.454259
827.013912,-3445.664544,-957.129040,-7599.604578
827.016500,-9284.151688,1895.115499,-8997.012976
827.019087,9131.011042,803.988394,-10336.993632
827.021675,6451.049730,-478.564520,-8250.452325
827.024263,-95.712904,440.279358,-6278.766502
827.026851,6106.483275,631.705166,-8193.024582
827.029438,459.421939,-4039.084549,-10700.702667
827.032026,0.000000,-2220.539373,-9494.720077
827.034614,3522.234867,5111.069074,-7255.038123
827.037201,1799.402595,-2067.398726,-7369.893608
827.039789,-5091.926493,-2373.680019,-9035.298138
827.042377,1780.260014,2354.537438,-9877.571693
827.044965,7216.752962,-1301.695494,-9494.720077
827.047552,440.279358,-3043.670347,-7714.460062
827.050140,172.283227,1416.550979,-7408.178770
827.052728,4670.789715,2029.113565,-9877.571693
827.055315,-2794.816797,-2086.541307,-10164.710405
827.057903,-3637.090352,1722.832272,-8441.878133
827.060491,6623.332957,2239.681954,-7676.174901
827.063078,2450.250342,1148.554848,-7523.034254
827.065666,2143.969050,1110.269686,-9686.145885
827.068254,440.279358,-1531.406464,-9131.011042
827.070842,2756.531635,1780.260014,-7542.176835
827.073429,-4192.225195,3388.236802,-8346.165229
827.076017,-4173.082614,4000.799387,-8920.442653
827.078605,4785.645200,-2871.387120,-10030.712339
827.081192,3215.953574,-3503.092286,-8346.165229
827.083780,-2297.109696,4881.358104,-7082.754896
827.086368,-2220.539373,-669.990328,-8958.727814
827.088955,-9552.147819,19.142581,-10662.417506
827.091543,-4077.369710,4977.071008,-9973.284597
827.094131,6623.332957,-574.277424,-8001.598774
827.096719,-7121.040058,1071.984525,-7044.469734
827.099306,-3924.229064,3388.236802,-9284.151688
827.101894,1646.261949,1110.269686,-10872.985894
827.104482,-1799.402595,-3062.812928,-8767.302006
827.107069,-6719.045861,746.560651,-7982.456194
827.109657,-880.558717,5321.637462,-8173.882002
827.112245,-1550.549045,-1148.554848,-9647.860723
827.114833,-4307.080680,727.418070,-10107.282662
827.117421,5225.924558,612.562586,-8039.883936
827.120009,6565.905214,-612.562586,-6623.332957
827.122597,-3675.375514,1033.699363,-8097.311678
827.125185,976.271621,1359.123237,-9992.427178
827.127773,8633.303941,1225.125171,-8939.585234
827.130361,-7580.461997,-2526.820666,-7369.893608
827.132948,5627.918755,5053.641331,-8767.302006
827.135536,2526.820666,-3043.670347,-9839.286531
827.138124,-7082.754896,1895.115499,-9820.143950
827.140712,1818.545176,4134.797453,-9379.864592
827.143300,1263.410333,1454.836141,-8039.883936
827.145888,-8537.591037,-3349.951640,-8920.442653
827.148476,3445.664544,1895.115499,-10049.854920
827.151064,12978.669782,842.273555,-8020.741355
827.153652,7791.030386,-2584.248408,-6719.045861
827.156240,325.423874,-1052.841944,-7542.176835
827.158828,-19.142581,2277.967115,-10336.993632
827.161416,6872.186507,-918.843878,-10068.997501
827.164004,-669.990328,1569.691626,-7791.030386
827.166592,957.129040,3235.096155,-7752.745224
827.169180,2297.109696,-5015.356170,-8748.159426
827.171767,-2220.539373,2143.969050,-9456.434915
827.174355,4230.510357,3541.377448,-10030.712339
827.176943,4115.654872,2679.961312,-8001.598774
827.179531,-1282.552914,-2699.103893,-7255.038123
827.182119,-57.427742,1339.980656,-9284.151688
827.184707,5053.641331,3024.527766,-10317.851051
827.187295,-2048.256146,-861.416136,-9131.011042
827.189883,-133.998066,-1014.556782,-7350.751027
827.192471,6604.190376,-3254.238736,-7944.171032
827.195059,6948.756830,153.140646,-9399.007173
827.197647,-12212.966550,5838.487144,-9169.296203
827.200235,-6987.041992,5168.496816,-9322.436850
827.202823,-5800.201982,-574.277424,-8690.731683
827.205411,-3598.805190,-631.705166,-8882.157491
827.207999,4651.647134,4632.504554,-9781.858789
827.210586,2871.387120,-1665.404530,-8154.739421
827.213174,-4900.500685,-76.570323,-7159.325219
827.215762,-3369.094221,2335.394858,-9628.718142
827.218349,-421.136778,-191.425808,-10222.138147
827.220937,784.845813,-2852.244539,-8518.448456
827.223524,1741.974853,2411.965181,-6029.912952
827.226112,4804.787781,5513.063270,-6891.329088
827.228699,18836.299507,-2009.970984,-7637.889739
827.231287,5130.211654,-976.271621,-9360.722011
827.233874,-3062.812928,1722.832272,-9590.432981
827.236462,-2775.674216,1607.976787,-8097.311678
827.239049,-9341.579430,3024.527766,-8250.452325
827.241637,-3024.527766,133.998066,-10547.562021
827.244224,-267.996131,-842.273555,-10413.563955
827.246812,-1512.263883,6259.623922,-7771.887805
827.249399,5264.209720,-114.855485,-6891.329088
827.251987,5187.639397,-2660.818731,-8882.157491
827.254575,746.560651,-2718.246474,-9628.718142
827.257162,-7006.184573,3847.658741,-7963.313613
827.259750,14261.222696,3311.666478,-8614.161360
827.262337,669.990328,-5034.498750,-8480.163294
827.264925,-6814.758765,4058.227130,-8805.587168
827.267512,7618.747158,2947.957443,-10336.993632
827.270100,-3981.656806,2009.970984,-9188.438784
827.272687,-12863.814298,1205.982590,-8499.305875
827.275275,5666.203917,-1684.547110,-9437.292334
827.277862,7599.604578,-2124.826469,-9054.440718
827.280450,3445.664544,2297.109696,-6814.758765
827.283037,4441.078746,3024.527766,-7427.321350
827.285625,2660.818731,-2182.254211,-9877.571693
827.288212,-2431.107762,-3771.088418,-9934.999435
827.290800,1703.689691,2201.396792,-8977.870395
827.293387,3694.518094,-937.986459,-7848.458128
827.295975,-5895.914886,1244.267752,-8020.741355
827.298562,57.427742,2775.674216,-9092.725880
827.301150,7312.465866,-421.136778,-10547.562021
827.303737,-478.564520,-2833.101958,-8690.731683
827.306325,-3101.098090,6508.477472,-7331.608446
827.308912,38.285162,2488.535504,-8843.872330
827.311500,593.420005,-3598.805190,-10088.140082
827.314087,382.851616,3139.383251,-9054.440718
827.316675,3426.521963,5283.352301,-7408.178770
827.319262,6719.045861,-2450.250342,-8403.592971
827.321849,-2105.683888,-1148.554848,-7714.460062
827.324436,4402.793584,3694.518094,-9092.725880
827.327024,7982.456194,-4019.941968,-9858.429112
827.329611,-8441.878133,210.568389,-7542.176835
827.332198,-440.279358,3694.518094,-7982.456194
827.334785,11102.696864,-3751.945837,-9743.573627
827.337373,-5245.067139,-1569.691626,-8461.020714
827.339960,-7369.893608,5493.920690,-8595.018779
827.342547,-497.707101,2794.816797,-9781.858789
827.345134,-5857.629725,-631.705166,-9284.151688
827.347721,2124.826469,823.130974,-8269.594906
827.350309,-2737.389054,1799.402595,-8384.450390
827.352896,-2947.957443,-2699.103893,-9341.579430
827.355483,-1607.976787,2928.814862,-8843.872330
827.358070,2411.965181,3751.945837,-9399.007173
827.360658,-2392.822600,-2029.113565,-9284.151688
827.363245,-6776.473603,440.279358,-7197.610381
827.365832,1550.549045,2086.541307,-7791.030386
827.368419,3196.810994,-1741.974853,-9762.716208
827.371007,-899.701298,4211.367776,-9092.725880
827.373594,-1033.699363,210.568389,-7657.032320
827.376181,2813.959378,-2373.680019,-8269.594906
827.378768,2794.816797,-4498.506488,-9647.860723
827.381356,-9743.573627,4575.076811,-8729.016845
827.383943,2392.822600,2258.824534,-9915.856854
827.386530,1014.556782,-4517.649069,-9284.151688
827.389117,-1071.984525,5187.639397,-6699.903280
827.391705,12825.529136,-957.129040,-8537.591037
827.394292,1148.554848,-1971.685822,-9494.720077
827.396879,-7082.754896,2737.389054,-8020.741355
827.399466,7446.463931,2545.963246,-8882.157491
827.402053,11791.829773,-765.703232,-8480.163294
827.404641,-287.138712,-555.134843,-7274.180704
827.407228,5283.352301,1167.697429,-7714.460062
827.409815,1971.685822,-4613.361973,-9284.151688
827.412402,-823.130974,1473.978722,-8709.874264
827.414990,4957.928427,3943.371645,-7810.172966
827.417577,937.986459,-1914.258080,-8939.585234
827.420164,535.992262,-2928.814862,-8786.444587
827.422751,3254.238736,4460.221326,-8193.024582
827.425338,8020.741355,1914.258080,-9762.716208
827.427926,3637.090352,-2775.674216,-9092.725880
827.430513,-1607.976787,2679.961312,-7771.887805
827.433100,-516.849682,1990.828403,-8633.303941
827.435687,-306.281293,-1837.687757,-10451.849117
827.438274,-3388.236802,3292.523898,-9762.716208
827.440861,153.140646,5436.492947,-8078.169098
827.443449,9399.007173,-2354.537438,-8518.448456
827.446036,-5321.637462,-57.427742,-7848.458128
827.448623,1186.840010,2450.250342,-9150.153622
827.451210,6776.473603,-2488.535504,-9992.427178
827.453797,-5761.916821,535.992262,-7561.319416
827.456384,229.710970,1875.972918,-7676.174901
827.458972,13112.667848,-4364.508422,-8863.014910
827.461559,-3828.516160,459.421939,-8537.591037
827.464146,-8231.309744,4326.223261,-8958.727814
827.466733,-1837.687757,-267.996131,-10183.852986
827.469320,-7274.180704,516.849682,-9839.286531
827.471907,382.851616,2373.680019,-7637.889739
827.474494,-1722.832272,2967.100024,-9245.866526
827.477082,-2220.539373,-2067.398726,-10470.991698
827.479669,-6029.912952,4287.938099,-9035.298138
827.482256,-631.705166,3101.098090,-8977.870395
827.484843,-1320.838075,-3273.381317,-9667.003304
827.487430,-6795.616184,3292.523898,-7618.747158
827.490017,1186.840010,4058.227130,-8154.739421
827.492605,-3656.232933,-2967.100024,-10566.704602
827.495192,76.570323,535.992262,-9265.009107
827.497779,3311.666478,2526.820666,-6776.473603
827.500366,1052.841944,-497.707101,-9475.577496
827.502953,-3005.385186,2890.529701,-9513.862658
827.505540,-9647.860723,2277.967115,-8499.305875
827.508128,11887.542677,-1091.127106,-9533.005238
827.510715,10624.132344,-2488.535504,-7197.610381
827.513302,-287.138712,440.279358,-7159.325219
827.515889,1627.119368,-669.990328,-9973.284597
827.518476,-3866.801322,440.279358,-10068.997501
827.521063,-10853.843314,2890.529701,-9322.436850
827.523650,1646.261949,-2373.680019,-9513.862658
827.526237,4249.652938,-2392.822600,-8461.020714
827.528823,-172.283227,3598.805190,-7389.036189
827.531410,-1646.261949,4843.072942,-9456.434915
827.533996,-555.134843,-2737.389054,-11255.837510
827.536583,-9781.858789,1014.556782,-8939.585234
827.539169,-1454.836141,4766.502619,-8135.596840
827.541756,10643.274925,-746.560651,-9322.436850
827.544342,-2220.539373,765.703232,-8537.591037
827.546929,-3292.523898,4019.941968,-8805.587168
827.549515,7350.751027,-1512.263883,-10624.132344
827.552101,229.710970,-1148.554848,-9150.153622
827.554688,-9073.583299,4670.789715,-7274.180704
827.557274,4364.508422,1186.840010,-9762.716208
827.559861,-1014.556782,1186.840010,-10432.706536
827.562447,-2507.678085,6087.340694,-7523.034254
827.565034,13820.943338,-3158.525832,-8193.024582
827.567620,2124.826469,-3713.660675,-7714.460062
827.570207,-3292.523898,6814.758765,-7618.747158
827.572793,6029.912952,2220.539373,-9896.714274
827.575379,-1263.410333,-1588.834206,-8958.727814
827.577966,-5455.635528,-1550.549045,-7599.604578
827.580552,6527.620053,2048.256146,-8901.300072
827.583139,210.568389,-1263.410333,-9054.440718
827.585725,-10815.558152,2507.678085,-8595.018779
827.588312,-5015.356170,3943.371645,-9896.714274
827.590898,-1167.697429,-2220.539373,-9801.001370
827.593485,-382.851616,650.847747,-7982.456194
827.596071,-57.427742,4766.502619,-7235.895542
827.598657,1052.841944,861.416136,-9437.292334
827.601244,1627.119368,-3656.232933,-9456.434915
827.603830,-6929.614250,3388.236802,-8709.874264
827.606417,478.564520,957.129040,-9418.149754
827.609003,-1512.263883,-1933.400661,-8365.307810
827.611590,-7810.172966,4134.797453,-8384.450390
827.614176,76.570323,1225.125171,-10490.134278
827.616763,2182.254211,-4364.508422,-9571.290400
827.619349,-5264.209720,4517.649069,-6757.331022
827.621936,-3215.953574,2009.970984,-9667.003304
827.624522,1282.552914,1684.547110,-9590.432981
827.627108,-10451.849117,421.136778,-9188.438784
827.629660,2220.539373,1990.828403,-9494.720077
827.632222,14548.361408,-2086.541307,-7389.036189
827.634783,4632.504554,-5455.635528,-7503.891674
827.637345,-842.273555,2794.816797,-9073.583299
827.639906,3196.810994,1110.269686,-10107.282662
827.642467,-9073.583299,1320.838075,-9379.864592
827.645029,-2277.967115,38.285162,-9092.725880
827.647590,7312.465866,-765.703232,-8556.733618
827.650152,2488.535504,-1531.406464,-8805.587168
827.652713,-8097.311678,5685.346498,-9705.288466
827.655275,1339.980656,2699.103893,-10987.841379
827.657836,-2431.107762,-4058.227130,-9322.436850
827.660398,-8958.727814,2067.398726,-7963.313613
827.662959,7542.176835,2737.389054,-9322.436850
827.665520,1971.685822,-3522.234867,-8537.591037
827.668082,-4728.217458,937.986459,-8250.452325
827.670643,1263.410333,2986.242605,-9858.429112
827.673205,7255.038123,-1244.267752,-7982.456194
827.675766,-3522.234867,1071.984525,-7197.610381
827.678328,1741.974853,172.283227,-10279.565890
827.680889,8518.448456,-3675.375514,-9552.147819
827.683451,-4058.227130,-2029.113565,-7637.889739
827.686012,6795.616184,3656.232933,-8901.300072
827.688574,-5666.203917,-95.712904,-8958.727814
827.691135,-15428.920125,1512.263883,-9571.290400
827.693696,-1607.976787,4709.074877,-9667.003304
827.696258,3273.381317,3426.521963,-8786.444587
827.698819,2469.392923,-2086.541307,-7580.461997
827.701381,2009.970984,248.853550,-7810.172966
827.703942,4996.213589,2239.681954,-8212.167163
827.706504,-1071.984525,-2009.970984,-8997.012976
827.709065,-7255.038123,2258.824534,-8997.012976
827.711627,6336.194245,306.281293,-8422.735552
827.714188,-593.420005,-2316.252277,-7044.469734
827.716750,-191.425808,1722.832272,-8020.741355
827.719311,5972.485210,2699.103893,-8977.870395
827.721872,-3388.236802,1914.258080,-9150.153622
827.724434,-5953.342629,-1320.838075,-9284.151688
827.726995,-3196.810994,3866.801322,-8805.587168
827.729557,1684.547110,76.570323,-8154.739421
827.732121,-6144.768437,-1531.406464,-9322.436850
827.734686,-1799.402595,918.843878,-10260.423309
827.737251,5168.496816,2813.959378,-7810.172966
827.739815,-3809.373579,-899.701298,-6891.329088
827.742380,650.847747,3541.377448,-9111.868461
827.744945,-3809.373579,1493.121302,-9686.145885
827.747509,6068.198114,-2105.683888,-9226.723946
827.750074,10317.851051,-57.427742,-7006.184573
827.752639,8556.733618,-1512.263883,-7618.747158
827.755203,153.140646,-2163.111630,-8671.589102
827.757768,-5915.057467,3024.527766,-9686.145885
827.760333,-6489.334891,1320.838075,-10394.421374
827.762897,363.709035,-3694.518094,-9360.722011
827.765462,-19.142581,1722.832272,-7752.745224
827.768027,6144.768437,2737.389054,-7905.885870
827.770591,-4957.928427,3081.955509,-10049.854920
827.773156,-6585.047795,-689.132909,-10700.702667
827.775721,-5972.485210,2258.824534,-8652.446522
827.778285,6757.331022,1684.547110,-7446.463931
827.780850,11734.402030,-3235.096155,-8882.157491
827.783415,-3483.949706,1607.976787,-8748.159426
827.785979,5206.781978,-344.566454,-8327.022648
827.788544,3254.238736,-4115.654872,-9533.005238
827.791109,-2354.537438,1454.836141,-8843.872330
827.793673,-1875.972918,5513.063270,-7465.606512
827.796238,5474.778109,746.560651,-9820.143950
827.798803,-823.130974,-1378.265818,-9131.011042
827.801367,2852.244539,-1033.699363,-7982.456194
827.803932,10317.851051,-2565.105827,-7982.456194
827.806497,-5053.641331,2488.535504,-7829.315547
827.809061,-10470.991698,4211.367776,-10030.712339
827.811626,-5187.639397,2105.683888,-10068.997501
827.814194,-1607.976787,1799.402595,-8786.444587
827.816761,2048.256146,2833.101958,-7561.319416
827.819329,1225.125171,172.283227,-8633.303941
827.821896,248.853550,-1301.695494,-9073.583299
827.824464,-7159.325219,3426.521963,-9150.153622
827.827031,497.707101,1914.258080,-8652.446522
827.829599,6297.909083,-2660.818731,-8193.024582
827.832167,-10241.280728,2890.529701,-8097.311678
827.834734,-3120.240670,3943.371645,-9150.153622
827.837302,1895.115499,-1167.697429,-9839.286531
827.839869,-9571.290400,2354.537438,-8690.731683
827.842437,555.134843,2411.965181,-8614.161360
827.845004,3062.812928,535.992262,-8805.587168
827.847572,-8709.874264,-1339.980656,-7714.460062
827.850139,5570.491013,4153.940034,-8958.727814
827.852707,9628.718142,-2009.970984,-9303.294269
827.855274,-5991.627790,-823.130974,-7274.180704
827.857842,-1990.828403,2469.392923,-8327.022648
827.860410,-880.558717,459.421939,-9705.288466
827.862977,-4192.225195,-382.851616,-9992.427178
827.865545,-3522.234867,995.414202,-9245.866526
827.868112,7542.176835,5283.352301,-8078.169098
827.870680,5876.772306,-1646.261949,-8729.016845
827.873247,-5551.348432,2469.392923,-8786.444587
827.875815,-1167.697429,1473.978722,-9494.720077
827.878382,7523.034254,1416.550979,-8939.585234
827.880950,-708.275490,574.277424,-8039.883936
827.883518,6221.338760,-1416.550979,-7982.456194
827.886085,8327.022648,-1856.830338,-8116.454259
827.888653,-5704.489078,1607.976787,-9533.005238
827.891220,-3426.521963,4632.504554,-10011.569758
827.893788,9035.298138,-153.140646,-7752.745224
827.896355,-2565.105827,-2354.537438,-7714.460062
827.898923,1359.123237,2488.535504,-8671.589102
827.901490,5379.065205,842.273555,-9016.155557
827.904058,-3809.373579,-1320.838075,-8958.727814
827.906625,5455.635528,1607.976787,-8346.165229
827.909193,4843.072942,1703.689691,-7848.458128
827.911761,-4977.071008,-2565.105827,-8863.014910
827.914328,2277.967115,-1225.125171,-9839.286531
827.916897,4000.799387,-823.130974,-8556.733618
827.919467,10643.274925,-1033.699363,-8614.161360
827.922036,-10317.851051,2335.394858,-8154.739421
827.924606,-12557.533005,3483.949706,-10413.563955
827.927175,-1818.545176,516.849682,-9954.142016
827.929744,-1244.267752,3369.094221,-8461.020714
827.932314,3426.521963,1856.830338,-7791.030386
827.934883,11274.980091,-4651.647134,-7159.325219
827.937452,0.000000,784.845813,-7695.317482
827.940022,-2354.537438,3445.664544,-9705.288466
827.942591,1263.410333,1110.269686,-8977.870395
827.945160,4115.654872,-3005.385186,-6872.186507
827.947730,-6087.340694,1856.830338,-7197.610381
827.950299,3598.805190,2277.967115,-9418.149754
827.952869,-765.703232,-708.275490,-8977.870395
827.955438,-9877.571693,2794.816797,-8556.733618
827.958007,2545.963246,1741.974853,-8614.161360
827.960577,-153.140646,-1550.549045,-8327.022648
827.963146,-3158.525832,1205.982590,-6853.043926
827.965715,9054.440718,2163.111630,-8288.737486
827.968285,8805.587168,-2488.535504,-9245.866526
827.970854,-2335.394858,-1052.841944,-6853.043926
827.973423,4287.938099,1282.552914,-8059.026517
827.975993,-4287.938099,-2316.252277,-9609.575562
827.978562,-1282.552914,2852.244539,-10030.712339
827.981131,-2871.387120,478.564520,-9456.434915
827.983701,995.414202,1933.400661,-7944.171032
827.986270,5474.778109,-516.849682,-8231.309744
827.988840,-976.271621,3101.098090,-8556.733618
827.991409,3024.527766,-880.558717,-9801.001370
827.993978,6221.338760,133.998066,-8920.442653
827.996548,2124.826469,3828.516160,-7178.467800
827.999117,9245.866526,-2909.672282,-7752.745224
828.001686,6489.334891,-3617.947771,-8250.452325
828.004256,-172.283227,2373.680019,-8958.727814
828.006825,-1205.982590,4747.360038,-9054.440718
828.009394,3139.383251,-3560.520029,-8729.016845
828.011964,-4364.508422,612.562586,-8097.311678
828.014533,6278.766502,1110.269686,-9092.725880
828.017103,6833.901346,-325.423874,-8958.727814
828.019674,-3560.520029,1684.547110,-9590.432981
828.022245,-5379.065205,3981.656806,-8920.442653
828.024816,2813.959378,-1110.269686,-8422.735552
828.027387,-1818.545176,1569.691626,-9188.438784
828.029958,2928.814862,4747.360038,-8403.592971
828.032529,9188.438784,-4211.367776,-8499.305875
828.035100,2947.957443,-3560.520029,-7637.889739
828.037672,-1875.972918,6853.043926,-7369.893608
828.040243,1665.404530,3158.525832,-10183.852986
828.042814,-10222.138147,-976.271621,-9896.714274
828.045385,-4287.938099,1588.834206,-8537.591037
828.047956,4364.508422,2335.394858,-8212.167163
828.050527,287.138712,-2967.100024,-8250.452325
828.053098,-4689.932296,3196.810994,-8805.587168
828.055669,-4211.367776,2239.681954,-10356.136213
828.058241,-1473.978722,-1952.543242,-9054.440718
828.060812,-1933.400661,1531.406464,-8365.307810
828.063383,-4919.643266,3196.810994,-8652.446522
828.065954,-2947.957443,689.132909,-10298.708470
828.068525,440.279358,-937.986459,-9207.581365
828.071096,-5608.776174,5417.350366,-8269.594906
828.073667,2469.392923,191.425808,-8786.444587
828.076238,2143.969050,-2737.389054,-8001.598774
828.078810,-4747.360038,4881.358104,-8193.024582
828.081381,5800.201982,-1301.695494,-9705.288466
828.083952,-1205.982590,-229.710970,-8805.587168
828.086523,-13667.802691,5761.916821,-8729.016845
828.089094,1531.406464,4230.510357,-9284.151688
828.091665,-1722.832272,-880.558717,-10566.704602
828.094236,-6202.196179,-1952.543242,-9762.716208
828.096808,8863.014910,3847.658741,-6987.041992
828.099379,17304.893043,-5857.629725,-7599.604578
828.101950,-5245.067139,-1895.115499,-8461.020714
828.104521,-1971.685822,5742.774240,-9379.864592
828.107092,-1167.697429,-1799.402595,-10624.132344
828.109663,-4996.213589,-3369.094221,-9092.725880
828.112234,5723.631659,4230.510357,-7216.752962
828.114805,5838.487144,-1914.258080,-8882.157491
828.117377,-2411.965181,-2641.676150,-9973.284597
828.119948,-8288.737486,4192.225195,-9379.864592
828.122520,2354.537438,1339.980656,-9111.868461
828.125092,440.279358,-1627.119368,-8059.026517
828.127665,4383.651003,2124.826469,-8269.594906
828.130237,3062.812928,1722.832272,-8767.302006
828.132809,-823.130974,-1665.404530,-9150.153622
828.135381,-267.996131,440.279358,-8671.589102
828.137954,2124.826469,2871.387120,-7810.172966
828.140526,3809.373579,1397.408398,-9437.292334
828.143098,1148.554848,1416.550979,-8480.163294
828.145671,5072.783912,-1148.554848,-8709.874264
828.148243,8422.735552,-3445.664544,-7369.893608
828.150815,-2163.111630,4153.940034,-7255.038123
828.153387,-8537.591037,5627.918755,-10183.852986
828.155960,-7369.893608,-325.423874,-10394.421374
828.158532,-2813.959378,19.142581,-8709.874264
828.161104,2258.824534,3847.658741,-7752.745224
828.163677,1186.840010,1378.265818,-8135.596840
828.166249,516.849682,-2105.683888,-8901.300072
828.168821,-9609.575562,2890.529701,-10202.995566
828.171394,-2507.678085,2947.957443,-9226.723946
828.173966,3464.807125,-1167.697429,-8441.878133
828.176538,-10987.841379,3311.666478,-7523.034254
828.179110,153.140646,918.843878,-10088.140082
828.181683,1167.697429,-535.992262,-9839.286531
828.184255,-11887.542677,5417.350366,-9111.868461
828.186827,1914.258080,1971.685822,-8652.446522
828.189400,1512.263883,-1225.125171,-8384.450390
828.191972,-1741.974853,-880.558717,-8518.448456
828.194544,6183.053598,3158.525832,-8729.016845
828.197116,6163.911018,-1129.412267,-7599.604578
828.199689,-6374.479406,-2928.814862,-8461.020714
828.202261,-8614.161360,3809.373579,-9265.009107
828.204833,1416.550979,1301.695494,-10892.128475
828.207406,-6929.614250,-3617.947771,-9858.429112
828.209978,1895.115499,4843.072942,-6929.614250
828.212550,17170.894978,-4115.654872,-7925.028451
828.215122,-1588.834206,-1052.841944,-9207.581365
828.217695,-6431.907149,1646.261949,-8997.012976
828.220267,7140.182638,5149.354235,-9284.151688
828.222839,3981.656806,-6106.483275,-8212.167163
828.225413,2679.961312,-1550.549045,-7044.469734
828.227986,8269.594906,2718.246474,-7963.313613
828.230560,6757.331022,-1378.265818,-9092.725880
828.233133,-7312.465866,2220.539373,-9265.009107
828.235706,-3388.236802,1569.691626,-9494.720077
828.238280,-612.562586,-2737.389054,-8786.444587
828.240853,1531.406464,-2813.959378,-8958.727814
828.243427,210.568389,2297.109696,-8767.302006
828.246000,7293.323285,-114.855485,-8805.587168
828.248573,650.847747,593.420005,-7657.032320
828.251147,-4058.227130,344.566454,-8307.880067
828.253720,5742.774240,-2833.101958,-9858.429112
828.256294,-2029.113565,-401.994197,-9284.151688
828.258867,1914.258080,4881.358104,-8767.302006
828.261441,-2909.672282,-1225.125171,-7810.172966
828.264014,-5857.629725,-1129.412267,-9552.147819
828.266587,-6259.623922,-114.855485,-10049.854920
828.269161,-3177.668413,4536.791650,-9073.583299
828.271734,5761.916821,-1875.972918,-8288.737486
828.274308,3617.947771,-957.129040,-7963.313613
828.276881,-3751.945837,3981.656806,-8116.454259
828.279454,-1531.406464,153.140646,-9762.716208
828.282028,-7350.751027,1129.412267,-10126.425243
828.284601,-3866.801322,3579.662610,-9169.296203
828.287175,-727.418070,1186.840010,-6967.899411
828.289748,12882.956878,-3675.375514,-7331.608446
828.292321,-861.416136,114.855485,-8882.157491
828.294895,-344.566454,2297.109696,-8595.018779
828.297468,-2335.394858,-516.849682,-8805.587168
828.300042,-5379.065205,2086.541307,-8633.303941
828.302615,8135.596840,1071.984525,-7810.172966
828.305189,1052.841944,-4747.360038,-9035.298138
828.307762,-6910.471669,4689.932296,-9303.294269
828.310335,-2584.248408,2009.970984,-9073.583299
828.312909,-2277.967115,1225.125171,-9035.298138
828.315482,-12155.538808,1416.550979,-10470.991698
828.318056,1205.982590,516.849682,-10030.712339
828.320629,14739.787216,-2067.398726,-6719.045861
828.323202,10643.274925,-5761.916821,-7101.897477
828.325776,1378.265818,3101.098090,-7944.171032
828.328328,-1493.121302,957.129040,-9686.145885
828.330880,-12098.111066,-1875.972918,-10987.841379
828.333432,-114.855485,114.855485,-9705.288466
828.335984,8116.454259,1205.982590,-7446.463931
828.338536,2737.389054,-191.425808,-8958.727814
828.341088,-478.564520,1033.699363,-9686.145885
828.343640,555.134843,287.138712,-9820.143950
828.346192,-7331.608446,-3349.951640,-9609.575562
828.348744,-3330.809059,3081.955509,-8441.878133
828.351296,11542.976222,1722.832272,-8135.596840
828.353848,5647.061336,-5072.783912,-7791.030386
828.356400,2852.244539,440.279358,-8518.448456
828.358952,4689.932296,2775.674216,-8633.303941
828.361504,-2507.678085,-2143.969050,-7982.456194
828.364056,2794.816797,-3656.232933,-9265.009107
828.366608,-1225.125171,3273.381317,-9265.009107
828.369160,8595.018779,555.134843,-9207.581365
828.371712,-13744.373014,-2641.676150,-8307.880067
828.374264,-10279.565890,4938.785846,-9035.298138
828.376816,3139.383251,-1378.265818,-9781.858789
828.379368,-3464.807125,-1684.547110,-8843.872330
828.381920,2009.970984,1933.400661,-8059.026517
828.384472,10011.569758,-306.281293,-8001.598774
828.387024,918.843878,-823.130974,-8020.741355
828.389576,-7197.610381,1148.554848,-9609.575562
828.392128,-2641.676150,2335.394858,-10509.276859
828.394680,-2507.678085,2124.826469,-9877.571693
828.397232,-10030.712339,2239.681954,-6929.614250
828.399784,14376.078181,-516.849682,-7121.040058
828.402336,8135.596840,-3751.945837,-8843.872330
828.404888,-6489.334891,3043.670347,-8441.878133
828.407440,-4134.797453,6393.621987,-9303.294269
828.409992,-2545.963246,-1129.412267,-8461.020714
828.412544,-516.849682,-3330.809059,-8250.452325
828.415096,5532.205851,2009.970984,-8595.018779
828.417648,4441.078746,459.421939,-8499.305875
828.420200,-1722.832272,-3139.383251,-8288.737486
828.422752,-10298.708470,1914.258080,-8537.591037
828.425304,-306.281293,2143.969050,-11045.269122
828.427856,-3215.953574,-3790.230998,-10336.993632
828.430412,401.994197,5608.776174,-6853.043926
828.432968,17592.031755,-3158.525832,-7503.891674
828.435524,1780.260014,-918.843878,-9188.438784
828.438080,-6661.618118,478.564520,-8920.442653
828.440636,5570.491013,6967.899411,-9073.583299
828.443192,6183.053598,-4670.789715,-8575.876198
828.445748,918.843878,-2009.970984,-6987.041992
828.448304,7025.327154,3426.521963,-7235.895542
828.450860,6987.041992,746.560651,-9035.298138
828.453416,-1512.263883,57.427742,-9418.149754
828.455973,-1550.549045,1933.400661,-8709.874264
828.458529,4728.217458,-1320.838075,-8556.733618
828.461085,2775.674216,-2622.533570,-8403.592971
828.463641,172.283227,4268.795518,-9533.005238
828.466197,401.994197,-535.992262,-10030.712339
828.468753,-5953.342629,-1148.554848,-8843.872330
828.471309,-4938.785846,6891.329088,-8767.302006
828.473865,7006.184573,1320.838075,-8882.157491
828.476421,7369.893608,-7657.032320,-9073.583299
828.478977,3751.945837,1895.115499,-7159.325219
828.481533,4823.930362,4249.652938,-7140.182638
828.484089,-9207.581365,-1071.984525,-10145.567824
828.486645,-15409.777544,-248.853550,-10030.712339
828.489201,-2584.248408,4192.225195,-9016.155557
828.491757,7810.172966,-2316.252277,-8461.020714
828.494313,1014.556782,-2163.111630,-6967.899411
828.496869,191.425808,3943.371645,-7810.172966
828.499425,459.421939,-727.418070,-10375.278794
828.501981,-4536.791650,-344.566454,-9073.583299
828.504537,8977.870395,2699.103893,-6010.770371
828.507093,2469.392923,-210.568389,-8116.454259
828.509649,-7982.456194,-3598.805190,-8882.157491
828.512205,-5953.342629,1990.828403,-8767.302006
828.514761,-4268.795518,4957.928427,-9647.860723
828.517318,-4689.932296,-2699.103893,-9533.005238
828.519874,1167.697429,5245.067139,-7618.747158
828.522430,5206.781978,2143.969050,-8116.454259
828.524986,4613.361973,-2852.244539,-9226.723946
828.527542,-6719.045861,1818.545176,-9169.296203
828.530098,-5532.205851,6431.907149,-8729.016845
828.532657,-6948.756830,861.416136,-10394.421374
828.535217,-2890.529701,-3847.658741,-10413.563955
828.537776,3541.377448,4594.219392,-7025.327154
828.540336,17572.889174,-4919.643266,-7925.028451
828.542895,248.853550,-3024.527766,-8441.878133
828.545455,-5455.635528,5857.629725,-8863.014910
828.548014,-2622.533570,-229.710970,-11026.126541
828.550574,-3675.375514,-3292.523898,-10126.425243
828.553133,2909.672282,4823.930362,-6661.618118
828.555693,9992.427178,-1627.119368,-7235.895542
828.558253,1856.830338,-2737.389054,-9743.573627
828.560812,1186.840010,1722.832272,-9341.579430
828.563372,-1205.982590,2431.107762,-8690.731683
828.565931,-229.710970,-2469.392923,-8863.014910
828.568491,2928.814862,38.285162,-8116.454259
828.571050,6489.334891,3579.662610,-8748.159426
828.573610,382.851616,-2239.681954,-9226.723946
828.576169,-4345.365842,2584.248408,-8365.307810
828.578729,1397.408398,3962.514226,-8193.024582
828.581288,7580.461997,-4019.941968,-7944.171032
828.583848,9552.147819,-6240.481341,-9188.438784
828.586407,1397.408398,-38.285162,-7255.038123
828.588967,5857.629725,2775.674216,-7101.897477
828.591526,-3158.525832,-1971.685822,-9877.571693
828.594086,-15869.199483,5761.916821,-9705.288466
828.596645,95.712904,1607.976787,-9475.577496
828.599205,2163.111630,-2660.818731,-8633.303941
828.601765,4364.508422,574.277424,-6719.045861
828.604324,5991.627790,1320.838075,-6948.756830
828.606884,-5187.639397,-803.988394,-10030.712339
828.609443,-9858.429112,1875.972918,-9724.431046
828.612003,-2660.818731,2794.816797,-7925.028451
828.614562,2813.959378,-1761.117434,-8269.594906
828.617122,-1588.834206,267.996131,-8920.442653
828.619681,-727.418070,2029.113565,-8575.876198
828.622241,-2986.242605,-1052.841944,-9647.860723
828.624800,-10241.280728,1473.978722,-9303.294269
828.627360,2813.959378,4517.649069,-8020.741355
828.629919,4957.928427,-1129.412267,-8097.311678
828.632479,669.990328,-2641.676150,-9035.298138
828.635042,-803.988394,2411.965181,-8709.874264
828.637604,-4479.363907,823.130974,-8154.739421
828.640166,1741.974853,880.558717,-10164.710405
828.642728,-3330.809059,-19.142581,-10107.282662
828.645290,2316.252277,3981.656806,-7523.034254
828.647852,11791.829773,-3713.660675,-8212.167163
828.650414,-1033.699363,1665.404530,-8307.880067
828.652977,-1033.699363,3483.949706,-8882.157491
828.655539,-3579.662610,2469.392923,-10088.140082
828.658101,-2009.970984,-3330.809059,-8748.159426
828.660663,3158.525832,1263.410333,-6776.473603
828.663225,11064.411702,-1646.261949,-7982.456194
828.665787,-2488.535504,210.568389,-9820.143950
828.668349,-803.988394,4307.080680,-9303.294269
828.670911,6604.190376,-1569.691626,-8499.305875
828.673473,-497.707101,-1646.261949,-8499.305875
828.676035,1052.841944,1550.549045,-8250.452325
828.678598,7006.184573,-1512.263883,-8461.020714
828.681160,-765.703232,-612.562586,-10126.425243
828.683722,-4498.506488,2526.820666,-8958.727814
828.686284,3445.664544,-1320.838075,-8499.305875
828.688846,-1244.267752,-1684.547110,-9111.868461
828.691408,5723.631659,2852.244539,-9954.142016
828.693970,-5513.063270,727.418070,-8059.026517
828.696532,-6814.758765,-1205.982590,-8422.735552
828.699094,-1359.123237,1780.260014,-9303.294269
828.701657,-1129.412267,2699.103893,-8939.585234
828.704219,1703.689691,-3617.947771,-8805.587168
828.706781,7101.897477,-1014.556782,-7982.456194
828.709343,-4689.932296,4019.941968,-7733.602643
828.711905,-2469.392923,-612.562586,-9552.147819
828.714467,-5742.774240,-248.853550,-10662.417506
828.717029,-3637.090352,5206.781978,-9399.007173
828.719591,2143.969050,-1473.978722,-7025.327154
828.722153,3426.521963,-1607.976787,-7905.885870
828.724715,-3656.232933,4058.227130,-9456.434915
828.727278,-2354.537438,1665.404530,-9934.999435
828.729840,-5149.354235,1052.841944,-9131.011042
828.732402,-4230.510357,3943.371645,-8020.741355
828.734964,4613.361973,3292.523898,-7580.461997
828.737528,5283.352301,-3675.375514,-8556.733618
828.740093,-5513.063270,-497.707101,-10088.140082
828.742657,-4938.785846,5455.635528,-8480.163294
828.745221,-7580.461997,-325.423874,-9379.864592
828.747786,-4115.654872,-133.998066,-10107.282662
828.750350,10834.700733,1780.260014,-7427.321350
828.752914,13533.804626,-7121.040058,-7695.317482
828.755479,0.000000,-976.271621,-9111.868461
828.758043,-5685.346498,5953.342629,-8499.305875
828.760607,-1952.543242,-229.710970,-10356.136213
828.763172,-1416.550979,-4441.078746,-10528.419440
828.765736,3713.660675,4153.940034,-7235.895542
828.768300,5934.200048,2201.396792,-8231.309744
828.770865,-9016.155557,-1856.830338,-10719.845248
828.773429,-287.138712,1607.976787,-10777.272990
828.775993,-344.566454,1052.841944,-9092.725880
828.778558,-1359.123237,-229.710970,-7867.600709
828.781122,-784.845813,957.129040,-8250.452325
828.783686,-497.707101,2086.541307,-8039.883936
828.786251,5991.627790,-2603.390989,-9628.718142
828.788815,-191.425808,765.703232,-9360.722011
828.791379,-1033.699363,1741.974853,-8288.737486
828.793944,-1301.695494,-1837.687757,-8212.167163
828.796508,6833.901346,0.000000,-9820.143950
828.799072,-6795.616184,2986.242605,-8499.305875
828.801637,-861.416136,-918.843878,-7982.456194
828.804201,497.707101,-2431.107762,-9379.864592
828.806765,-5072.783912,3637.090352,-8403.592971
828.809330,5474.778109,1512.263883,-8518.448456
828.811894,6987.041992,-1244.267752,-8575.876198
828.814458,-8977.870395,1933.400661,-7829.315547
828.817023,-2909.672282,-248.853550,-9092.725880
828.819587,-2756.531635,-459.421939,-10260.423309
828.822151,-7503.891674,3905.086483,-10107.282662
828.824716,3866.801322,765.703232,-7752.745224
828.827280,7446.463931,-4594.219392,-7905.885870
828.829844,-1780.260014,-1588.834206,-8422.735552
828.832409,-4900.500685,4192.225195,-9131.011042
828.834973,-4383.651003,-2699.103893,-10088.140082
828.837537,-7503.891674,-516.849682,-9073.583299
828.840104,957.129040,5091.926493,-7255.038123
828.842670,4421.936165,-2086.541307,-8461.020714
828.845237,-3369.094221,-2143.969050,-10413.563955
828.847803,-6374.479406,4345.365842,-8633.303941
828.850370,-2967.100024,1914.258080,-9054.440718
828.852936,-3388.236802,-3962.514226,-9934.999435
828.855503,-4613.361973,4364.508422,-7561.319416
828.858069,11964.113000,210.568389,-8059.026517
828.860636,3847.658741,-2890.529701,-9150.153622
828.863202,-5168.496816,3426.521963,-8288.737486
828.865769,-1703.689691,1225.125171,-9877.571693
828.868335,-1320.838075,-5551.348432,-10643.274925
828.870902,899.701298,2124.826469,-7867.600709
828.873468,7542.176835,2469.392923,-6470.192310
828.876035,4900.500685,-3292.523898,-9781.858789
828.878601,-6278.766502,382.851616,-10911.271056
828.881168,-3273.381317,1186.840010,-8269.594906
828.883734,4268.795518,-937.986459,-8882.157491
828.886301,3503.092286,-306.281293,-8958.727814
828.888867,-6967.899411,3962.514226,-8499.305875
828.891434,-593.420005,-1110.269686,-10490.134278
828.894000,-1761.117434,2737.389054,-9686.145885
828.896567,1607.976787,1990.828403,-6853.043926
828.899133,8882.157491,-5513.063270,-7829.315547
828.901700,8977.870395,-1397.408398,-9265.009107
828.904266,-3062.812928,5723.631659,-7063.612315
828.906833,-3598.805190,3732.803256,-9801.001370
828.909399,-8327.022648,-172.283227,-10107.282662
828.911966,-8288.737486,3771.088418,-8556.733618
828.914532,4230.510357,1071.984525,-8920.442653
828.917099,10566.704602,-3177.668413,-8556.733618
828.919665,-3962.514226,2392.822600,-6967.899411
828.922232,-3847.658741,1263.410333,-9092.725880
828.924798,-1895.115499,-4192.225195,-11255.837510
828.927365,-229.710970,765.703232,-7178.467800
828.929931,-6604.190376,4153.940034,-7523.034254
828.932498,38.285162,516.849682,-9571.290400
828.935064,-4421.936165,-842.273555,-9169.296203
828.937631,-6642.475538,4230.510357,-8288.737486
828.940197,10777.272990,2239.681954,-9494.720077
828.942765,-1359.123237,-3081.955509,-8633.303941
828.945333,-5704.489078,4173.082614,-7274.180704
828.947901,4900.500685,57.427742,-8997.012976
828.950469,2450.250342,650.847747,-9743.573627
828.953037,-14395.220762,1703.689691,-8575.876198
828.955605,5857.629725,1110.269686,-9169.296203
828.958173,14414.363342,-2316.252277,-7580.461997
828.960741,1837.687757,-1818.545176,-7810.172966
828.963309,2909.672282,1148.554848,-9035.298138
828.965877,1550.549045,-1588.834206,-9360.722011
828.968445,-10987.841379,727.418070,-8824.729749
828.971012,5685.346498,5761.916821,-8958.727814
828.973580,9284.151688,-4211.367776,-8882.157491
828.976148,-114.855485,-2335.394858,-8001.598774
828.978716,-1837.687757,1665.404530,-8767.302006
828.981284,3905.086483,2124.826469,-11160.124606
828.983852,-8595.018779,-3235.096155,-9781.858789
828.986420,38.285162,1416.550979,-8537.591037
828.988988,11542.976222,1359.123237,-8805.587168
828.991556,-2392.822600,-555.134843,-8250.452325
828.994124,-2048.256146,1071.984525,-8499.305875
828.996692,8441.878133,-2086.541307,-10279.565890
828.999260,1895.115499,-2526.820666,-8843.872330
829.001828,-7369.893608,3369.094221,-7657.032320
829.004396,10968.698798,1550.549045,-8805.587168
829.006963,-2928.814862,708.275490,-8384.450390
829.009531,-13801.800757,2316.252277,-9437.292334
829.012099,-4498.506488,5379.065205,-9533.005238
829.014667,1071.984525,-325.423874,-8633.303941
829.017235,-746.560651,-1167.697429,-8116.454259
829.019803,8212.167163,4115.654872,-8767.302006
829.022371,-1148.554848,-612.562586,-8518.448456
829.024939,-11734.402030,-574.277424,-9016.155557
829.027507,-6106.483275,1148.554848,-9284.151688
829.030075,11408.978157,2335.394858,-8575.876198
829.032643,-6068.198114,133.998066,-7676.174901
829.035211,-5111.069074,842.273555,-8863.014910
829.037779,765.703232,-1186.840010,-9762.716208
829.040347,-5455.635528,574.277424,-8059.026517
829.042915,1531.406464,7159.325219,-8403.592971
829.045484,4823.930362,1129.412267,-8843.872330
829.048053,-1263.410333,-2335.394858,-7331.608446
829.050622,-5130.211654,3311.666478,-8097.311678
829.053192,-1244.267752,5111.069074,-9896.714274
829.055761,-7063.612315,-937.986459,-9303.294269
829.058330,-765.703232,-1052.841944,-9111.868461
829.060899,10356.136213,2009.970984,-7561.319416
829.063469,11045.269122,-5953.342629,-7944.171032
829.066038,-1952.543242,-1588.834206,-8863.014910
829.068607,-535.992262,5532.205851,-9188.438784
829.071177,-1971.685822,-2373.680019,-9111.868461
829.073746,-114.855485,2431.107762,-8595.018779
829.076315,6987.041992,1818.545176,-8097.311678
829.078884,5876.772306,1435.693560,-8346.165229
829.081454,-4957.928427,-1091.127106,-9456.434915
829.084023,-133.998066,3388.236802,-10202.995566
829.086592,4862.215523,2603.390989,-8767.302006
829.089162,4651.647134,-5034.498750,-8097.311678
829.091731,7599.604578,421.136778,-8920.442653
829.094300,1646.261949,3101.098090,-8441.878133
829.096869,-880.558717,-1091.127106,-8958.727814
829.099439,-2660.818731,2373.680019,-10164.710405
829.102008,-4077.369710,5264.209720,-8193.024582
829.104577,6719.045861,-1244.267752,-8346.165229
829.107147,4728.217458,-3522.234867,-8020.741355
829.109716,-803.988394,5072.783912,-7963.313613
829.112285,-2335.394858,-421.136778,-9896.714274
829.114854,-11696.116869,2048.256146,-9609.575562
829.117424,-3694.518094,4307.080680,-8518.448456
829.119993,5934.200048,-2794.816797,-8422.735552
829.122562,4383.651003,-976.271621,-8537.591037
829.125132,-2947.957443,5130.211654,-8575.876198
829.127702,-1550.549045,1627.119368,-8671.589102
829.130272,-2660.818731,-3617.947771,-10566.704602
829.132842,-8001.598774,5359.922624,-8863.014910
829.135412,-11715.259450,2431.107762,-8288.737486
829.137982,3656.232933,-1856.830338,-9054.440718
829.140552,1033.699363,861.416136,-8824.729749
829.143122,-2545.963246,937.986459,-8480.163294
829.145692,3694.518094,-5685.346498,-9265.009107
829.148263,-1071.984525,478.564520,-8231.309744
829.150833,-459.421939,2354.537438,-6585.047795
829.153403,12768.101394,-1129.412267,-8958.727814
829.155973,-7714.460062,-1263.410333,-9265.009107
829.158543,-2469.392923,6336.194245,-9513.862658
829.161113,2258.824534,-2488.535504,-9743.573627
829.163683,-4096.512291,1148.554848,-7982.456194
829.166253,5895.914886,1493.121302,-8327.022648
829.168823,7140.182638,-229.710970,-8939.585234
829.171394,-2890.529701,-478.564520,-8997.012976
829.173964,-5379.065205,2258.824534,-9150.153622
829.176534,2411.965181,-325.423874,-8939.585234
829.179104,6546.762634,-4134.797453,-8020.741355
829.181674,1761.117434,114.855485,-6948.756830
829.184244,6393.621987,4689.932296,-9513.862658
829.186814,-823.130974,-574.277424,-10068.997501
829.189384,-4211.367776,-880.558717,-8212.167163
829.191954,4383.651003,4364.508422,-8671.589102
829.194525,3617.947771,-2852.244539,-8633.303941
829.197095,-2450.250342,2450.250342,-8020.741355
829.199665,-382.851616,3943.371645,-9877.571693
829.202235,5436.492947,-937.986459,-9379.864592
829.204805,-363.709035,-3503.092286,-7944.171032
829.207375,4326.223261,4421.936165,-8671.589102
829.209945,-4287.938099,937.986459,-8920.442653
829.212515,-8977.870395,-631.705166,-9399.007173
829.215085,-3043.670347,3694.518094,-8977.870395
829.217656,4594.219392,1875.972918,-8614.161360
829.220226,-593.420005,-2967.100024,-8173.882002
829.222796,-76.570323,3617.947771,-8020.741355
829.225366,-2775.674216,4000.799387,-9073.583299
829.227936,-3866.801322,-880.558717,-9456.434915
829.230507,-8901.300072,1339.980656,-10049.854920
829.233078,1473.978722,2220.539373,-9092.725880
829.235649,2641.676150,-2545.963246,-6987.041992
829.238220,-1186.840010,57.427742,-7867.600709
829.240791,-1512.263883,4039.084549,-9571.290400
829.243362,-8422.735552,-3215.953574,-9820.143950
829.245933,-7293.323285,38.285162,-9475.577496
829.248504,3675.375514,4536.791650,-8441.878133
829.251075,2756.531635,2699.103893,-7465.606512
829.253646,4421.936165,-2335.394858,-8786.444587
829.256216,-8154.739421,803.988394,-9169.296203
829.258787,440.279358,3043.670347,-9992.427178
829.261358,-2335.394858,-4230.510357,-9513.862658
829.263929,-38.285162,4498.506488,-7369.893608
829.266500,14088.939469,-2565.105827,-8059.026517
829.269071,2201.396792,-2526.820666,-8748.159426
829.271642,-5264.209720,4307.080680,-8863.014910
829.274213,-2603.390989,3598.805190,-9265.009107
829.276784,1837.687757,-2756.531635,-9303.294269
829.279355,1473.978722,-1722.832272,-7657.032320
829.281926,6317.051664,3445.664544,-6699.903280
829.284497,5876.772306,-1741.974853,-9169.296203
829.287068,-3254.238736,-287.138712,-9437.292334
829.289639,995.414202,2507.678085,-7867.600709
829.292210,7484.749093,-344.566454,-8843.872330
829.294781,95.712904,-1435.693560,-8422.735552
829.297352,-1129.412267,4957.928427,-7944.171032
829.299923,765.703232,3560.520029,-9934.999435
829.302494,3656.232933,-3847.658741,-9360.722011
829.305065,-2105.683888,-1071.984525,-7791.030386
829.307636,9169.296203,1225.125171,-8729.016845
829.310207,-5876.772306,1895.115499,-8709.874264
829.312777,-12442.677520,4364.508422,-9456.434915
829.315348,191.425808,1454.836141,-9341.579430
829.317919,1110.269686,-1607.976787,-8671.589102
829.320490,-3311.666478,4153.940034,-8020.741355
829.323061,4383.651003,3158.525832,-8212.167163
829.325632,-574.277424,421.136778,-9188.438784
829.328203,-8461.020714,-1148.554848,-9475.577496
829.330774,-2316.252277,3215.953574,-8154.739421
829.333346,13284.951075,-535.992262,-7905.885870
829.335918,-1722.832272,-1282.552914,-7369.893608
829.338489,-5283.352301,2986.242605,-8537.591037
829.341061,-842.273555,1684.547110,-9379.864592
829.343633,-10432.706536,153.140646,-8977.870395
829.346205,-6106.483275,57.427742,-9552.147819
829.348776,3905.086483,1607.976787,-8939.585234
829.351348,-3292.523898,-76.570323,-7503.891674
829.353920,1837.687757,4728.217458,-8422.735552
829.356491,-1856.830338,-976.271621,-8939.585234
829.359063,8863.014910,-803.988394,-9226.723946
829.361635,-1627.119368,497.707101,-8499.305875
829.364207,669.990328,7408.178770,-7886.743290
829.366778,8020.741355,-3560.520029,-8958.727814
829.369350,-4498.506488,210.568389,-8958.727814
829.371922,-1875.972918,4498.506488,-9513.862658
829.374494,3388.236802,612.562586,-9552.147819
829.377065,-3943.371645,-3732.803256,-9073.583299
829.379637,1646.261949,631.705166,-7829.315547
829.382209,11562.118803,-459.421939,-7599.604578
829.384781,-3751.945837,-784.845813,-10317.851051
829.387352,-7848.458128,3388.236802,-10030.712339
829.389924,6699.903280,-650.847747,-8690.731683
829.392496,8690.731683,-5589.633594,-7752.745224
829.395067,4460.221326,3024.527766,-6929.614250
829.397639,5283.352301,2909.672282,-8575.876198
829.400211,4689.932296,-1186.840010,-9667.003304
829.402783,-5934.200048,3751.945837,-8327.022648
829.405354,4996.213589,1761.117434,-8537.591037
829.407926,5781.059402,-5206.781978,-8001.598774
829.410498,-133.998066,3005.385186,-7599.604578
829.413070,-3617.947771,4575.076811,-9858.429112
829.415641,-9092.725880,1110.269686,-9992.427178
829.418213,-5264.209720,-344.566454,-8863.014910
829.420785,2679.961312,1933.400661,-8307.880067
829.423356,5359.922624,-823.130974,-8403.592971
829.425928,957.129040,803.988394,-8403.592971
829.428500,-8633.303941,3349.951640,-9456.434915
829.431072,-306.281293,1359.123237,-10815.558152
829.433643,-4728.217458,-2545.963246,-8441.878133
829.436215,-6029.912952,3024.527766,-7523.034254
829.438787,5742.774240,2794.816797,-9265.009107
829.441359,-3790.230998,-4785.645200,-9150.153622
829.443931,-7082.754896,2488.535504,-8958.727814
829.446503,6183.053598,1569.691626,-8863.014910
829.449074,6833.901346,-1359.123237,-7312.465866
829.451646,-2182.254211,-2086.541307,-8422.735552
829.454218,-5417.350366,3062.812928,-9533.005238
829.456790,-1646.261949,593.420005,-10183.852986
829.459362,-4862.215523,-2297.109696,-9265.009107
829.461933,6948.756830,3713.660675,-7082.754896
829.464505,16462.619488,-6489.334891,-7982.456194
829.467077,-2316.252277,-1588.834206,-8537.591037
829.469649,-2565.105827,6183.053598,-8805.587168
829.472221,1301.695494,1531.406464,-9418.149754
829.474793,2947.957443,-2067.398726,-8403.592971
829.477364,5513.063270,861.416136,-7637.889739
829.479936,12366.107197,976.271621,-7791.030386
829.482508,3464.807125,-5398.207786,-9092.725880
829.485080,-2622.533570,669.990328,-10088.140082
829.487652,-3330.809059,2756.531635,-9915.856854
829.490224,555.134843,-2469.392923,-9801.001370
829.492795,-1129.412267,1971.685822,-8441.878133
829.495367,1378.265818,2239.681954,-8690.731683
829.497939,631.705166,2775.674216,-10164.710405
829.500511,-1091.127106,1875.972918,-8422.735552
829.503083,2947.957443,1129.412267,-8173.882002
829.505655,9571.290400,-2699.103893,-7944.171032
829.508226,-421.136778,1703.689691,-7752.745224
829.510798,-8920.442653,5015.356170,-9858.429112
829.513370,-5474.778109,2660.818731,-9781.858789
829.515942,-3024.527766,-708.275490,-8786.444587
829.518514,-1454.836141,3196.810994,-8614.161360
829.521086,1933.400661,3292.523898,-8920.442653
829.523657,-3694.518094,995.414202,-9303.294269
829.526229,-10738.987829,555.134843,-9303.294269
829.528801,3656.232933,325.423874,-8384.450390
829.531373,8690.731683,-803.988394,-8671.589102
829.533945,-12882.956878,2718.246474,-8805.587168
829.536516,-3062.812928,3081.955509,-9667.003304
829.539089,-191.425808,-6183.053598,-9322.436850
829.541661,-8786.444587,2201.396792,-9092.725880
829.544233,3637.090352,5876.772306,-8977.870395
829.546805,7274.180704,1378.265818,-7235.895542
829.549377,-727.418070,-2871.387120,-8480.163294
829.551949,-5379.065205,1512.263883,-9418.149754
829.554522,-2220.539373,3292.523898,-10088.140082
829.557094,-4307.080680,-2584.248408,-9494.720077
829.559666,5953.342629,2201.396792,-7063.612315
829.562238,15122.638832,-5455.635528,-8173.882002
829.564810,-1339.980656,-765.703232,-8518.448456
829.567382,-3388.236802,5800.201982,-8461.020714
829.569954,2871.387120,-574.277424,-9571.290400
829.572527,6757.331022,-2105.683888,-8939.585234
829.575099,3120.240670,-650.847747,-7331.608446
829.577671,1895.115499,2641.676150,-8020.741355
829.580243,3962.514226,-3062.812928,-9647.860723
829.582815,1741.974853,267.996131,-9226.723946
829.585387,-172.283227,3732.803256,-8231.309744
829.587959,4249.652938,-2947.957443,-8939.585234
829.590532,708.275490,-1531.406464,-8480.163294
829.593104,-421.136778,3790.230998,-8690.731683
829.595676,1186.840010,3483.949706,-10126.425243
829.598248,-3273.381317,3024.527766,-9073.583299
829.600820,-1761.117434,401.994197,-8575.876198
829.603392,4594.219392,-1741.974853,-7293.323285
829.605964,6929.614250,344.566454,-7676.174901
829.608537,-6106.483275,3292.523898,-9781.858789
829.611109,-6336.194245,2584.248408,-9552.147819
829.613681,669.990328,-2986.242605,-8633.303941
829.616253,-2086.541307,746.560651,-8231.309744
829.618825,3617.947771,4843.072942,-8537.591037
829.621397,287.138712,2029.113565,-9265.009107
829.623970,-12193.823970,-382.851616,-10375.278794
829.626542,-7503.891674,3005.385186,-10758.130410
829.629114,-2201.396792,153.140646,-9820.143950
829.631686,-7752.745224,1052.841944,-8824.729749
829.634258,-2354.537438,6795.616184,-9054.440718
829.636830,4728.217458,1416.550979,-8939.585234
829.639402,-3349.951640,-3637.090352,-9226.723946
829.641952,-1722.832272,3924.229064,-8671.589102
829.644504,1378.265818,2316.252277,-7121.040058
829.647057,8920.442653,363.709035,-8212.167163
829.649609,-7523.034254,-210.568389,-8633.303941
829.652161,8441.878133,3101.098090,-9839.286531
829.654714,-708.275490,-2220.539373,-9265.009107
829.657266,-7178.467800,6393.621987,-7810.172966
829.659819,9418.149754,1225.125171,-8958.727814
829.662371,880.558717,-2488.535504,-9188.438784
829.664923,-6738.188442,3407.379382,-8882.157491
829.667476,2622.533570,1895.115499,-9150.153622
829.670028,4287.938099,-1875.972918,-8518.448456
829.672580,6987.041992,-2431.107762,-6604.190376
829.675133,8499.305875,287.138712,-7331.608446
829.677685,10068.997501,-765.703232,-9513.862658
829.680238,-6527.620053,-2909.672282,-9150.153622
829.682790,-631.705166,3081.955509,-8805.587168
829.685342,4000.799387,746.560651,-8977.870395
829.687895,-5723.631659,133.998066,-8824.729749
829.690447,-2297.109696,2718.246474,-9111.868461
829.692999,4670.789715,-2584.248408,-10356.136213
829.695552,440.279358,-4115.654872,-8882.157491
829.698104,2699.103893,1665.404530,-8461.020714
829.700657,-8346.165229,4766.502619,-8346.165229
829.703209,-4881.358104,-1186.840010,-9877.571693
829.705761,-2163.111630,401.994197,-8690.731683
829.708314,133.998066,3445.664544,-8231.309744
829.710866,4345.365842,-1952.543242,-8518.448456
829.713418,-1052.841944,-95.712904,-7771.887805
829.715971,2565.105827,-401.994197,-7791.030386
829.718523,4575.076811,-880.558717,-9954.142016
829.721076,-5379.065205,-976.271621,-9820.143950
829.723628,-2048.256146,3885.943902,-7121.040058
829.726180,6240.481341,421.136778,-6948.756830
829.728733,5340.780043,-3081.955509,-8977.870395
829.731285,-7197.610381,2852.244539,-9628.718142
829.733837,-6719.045861,1378.265818,-9724.431046
829.736390,-1071.984525,-133.998066,-9226.723946
829.738942,57.427742,2105.683888,-8365.307810
829.741495,-3139.383251,1684.547110,-8441.878133
829.744050,-2852.244539,-861.416136,-9322.436850
829.746605,-5895.914886,1033.699363,-10624.132344
829.749160,-3656.232933,382.851616,-9686.145885
829.751716,9303.294269,650.847747,-6795.616184
829.754271,9188.438784,-4230.510357,-7810.172966
829.756826,1205.982590,1627.119368,-8843.872330
829.759382,2009.970984,937.986459,-8920.442653
829.761937,-1282.552914,363.709035,-9226.723946
829.764492,1531.406464,4555.934230,-9131.011042
829.767047,6297.909083,899.701298,-7312.465866
829.769603,3235.096155,-2565.105827,-8461.020714
829.772158,-803.988394,689.132909,-8652.446522
829.774713,11198.409768,1301.695494,-8346.165229
829.777269,7197.610381,-3981.656806,-8518.448456
829.779824,-6470.192310,2660.818731,-8575.876198
829.782379,1933.400661,669.990328,-8537.591037
829.784934,2067.398726,-2431.107762,-8977.870395
829.787490,-5991.627790,153.140646,-9896.714274
829.790045,-2967.100024,4728.217458,-9188.438784
829.792600,7178.467800,2488.535504,-9207.581365
829.795156,-14758.929797,114.855485,-8690.731683
829.797711,-8059.026517,4173.082614,-9399.007173
829.800266,6412.764568,-1933.400661,-9226.723946
829.802821,-3445.664544,-1320.838075,-8135.596840
829.805377,153.140646,3637.090352,-8020.741355
829.807932,7503.891674,-1052.841944,-8307.880067
829.810487,-1875.972918,-4996.213589,-8614.161360
829.813043,-5742.774240,4862.215523,-9437.292334
829.815598,-1205.982590,1359.123237,-10375.278794
829.818153,5072.783912,-153.140646,-8518.448456
829.820708,-13189.238171,803.988394,-8154.739421
829.823264,1588.834206,4211.367776,-9111.868461
829.825819,-2029.113565,-555.134843,-9399.007173
829.828374,-13227.523333,38.285162,-8958.727814
829.830930,3732.803256,4039.084549,-8709.874264
829.833485,4862.215523,-880.558717,-8097.311678
829.836040,-5838.487144,-306.281293,-8078.169098
829.838595,-593.420005,2679.961312,-8537.591037
829.841151,-2928.814862,-421.136778,-9934.999435
829.843706,-2909.672282,-2660.818731,-9399.007173
829.846264,4651.647134,5742.774240,-6489.334891
829.848822,13935.798822,-4364.508422,-8384.450390
829.851380,-478.564520,-3847.658741,-9188.438784
829.853938,-5704.489078,6527.620053,-8595.018779
829.856496,5149.354235,2947.957443,-9360.722011
829.859054,4326.223261,-1741.974853,-8901.300072
829.861612,-5111.069074,19.142581,-8652.446522
829.864169,-497.707101,5034.498750,-8977.870395
829.866727,5570.491013,-2450.250342,-8958.727814
829.869285,2679.961312,440.279358,-8231.309744
829.871843,8480.163294,210.568389,-7676.174901
829.874401,8097.311678,-1799.402595,-8384.450390
829.876959,-4326.223261,-306.281293,-8212.167163
829.879517,-727.418070,4211.367776,-8652.446522
829.882075,4804.787781,-5455.635528,-10336.993632
829.884633,-6221.338760,-2526.820666,-9456.434915
829.887191,1646.261949,6451.049730,-8499.305875
829.889749,-5053.641331,7886.743290,-8135.596840
829.892307,-6699.903280,-612.562586,-10470.991698
829.894865,-7274.180704,2220.539373,-9016.155557
829.897423,2545.963246,3062.812928,-8346.165229
829.899981,3215.953574,-880.558717,-8633.303941
829.902539,-2009.970984,1875.972918,-7676.174901
829.905097,6202.196179,-1550.549045,-7599.604578
829.907655,1646.261949,-1225.125171,-9303.294269
829.910212,-14069.796888,4651.647134,-9762.716208
829.912770,-1895.115499,3522.234867,-8422.735552
829.915328,-3579.662610,593.420005,-8614.161360
829.917886,-1818.545176,-4977.071008,-9226.723946
829.920444,1895.115499,6451.049730,-8633.303941
829.923002,3924.229064,2986.242605,-8441.878133
829.925560,-1875.972918,-2718.246474,-8384.450390
829.928118,-899.701298,-918.843878,-7886.743290
829.930676,7216.752962,593.420005,-8039.883936
829.933234,-4555.934230,-248.853550,-8671.589102
829.935792,382.851616,5359.922624,-10662.417506
829.938350,-2048.256146,-3598.805190,-9973.284597
829.940908,-2545.963246,-1684.547110,-8441.878133
829.943466,19.142581,2029.113565,-8863.014910
829.946024,1684.547110,4077.369710,-8920.442653
829.948584,-3426.521963,-2009.970984,-9743.573627
829.951143,-4383.651003,2220.539373,-9150.153622
829.953703,9092.725880,5034.498750,-7542.176835
829.956263,4498.506488,-3024.527766,-8231.309744
829.958823,-1607.976787,-1129.412267,-8671.589102
829.961383,6776.473603,478.564520,-9494.720077
829.963942,1799.402595,-440.279358,-8901.300072
829.966502,-1205.982590,-1435.693560,-8671.589102
829.969062,3120.240670,689.132909,-8059.026517
829.971622,2756.531635,-1091.127106,-8575.876198
829.974182,842.273555,287.138712,-9533.005238
829.976741,-5781.059402,7063.612315,-9379.864592
829.979301,5321.637462,306.281293,-9399.007173
829.981861,-1646.261949,-5915.057467,-7503.891674
829.984421,-3024.527766,4096.512291,-7982.456194
829.986981,1569.691626,2947.957443,-10222.138147
829.989540,-3120.240670,1416.550979,-8671.589102
829.992100,-3005.385186,210.568389,-8327.022648
829.994660,3732.803256,401.994197,-8441.878133
829.997220,3675.375514,287.138712,-8154.739421
829.999780,-8154.739421,3503.092286,-8595.018779
830.002340,-6278.766502,4670.789715,-10528.419440
830.004899,-5359.922624,-1607.976787,-11428.120738
830.007459,-12385.249778,1282.552914,-7982.456194
830.010019,2392.822600,5474.778109,-7982.456194
830.012579,4747.360038,-1416.550979,-9322.436850
830.015139,-5570.491013,-3292.523898,-8920.442653
830.017698,-4307.080680,1129.412267,-8212.167163
830.020258,6757.331022,995.414202,-7944.171032
830.022818,2545.963246,-2928.814862,-8001.598774
830.025378,-8327.022648,2986.242605,-8422.735552
830.027938,-1129.412267,2277.967115,-10796.415571
830.030497,1033.699363,-4460.221326,-9858.429112
830.033057,1205.982590,3292.523898,-6527.620053
830.035617,11715.259450,-3464.807125,-8365.307810
830.038177,3981.656806,-1225.125171,-9035.298138
830.040737,-7695.317482,1665.404530,-8690.731683
830.043297,3771.088418,5551.348432,-9207.581365
830.045856,8116.454259,-440.279358,-8709.874264
830.048416,-3369.094221,-4441.078746,-8269.594906
830.050978,-3675.375514,5245.067139,-8863.014910
830.053539,2660.818731,-880.558717,-10528.419440
830.056101,3273.381317,1033.699363,-8595.018779
830.058662,3579.662610,1186.840010,-7791.030386
830.061224,10413.563955,-1512.263883,-8786.444587
830.063786,6948.756830,-4000.799387,-7867.600709
830.066347,-1148.554848,3656.232933,-8173.882002
830.068909,3273.381317,5340.780043,-9265.009107
830.071470,5781.059402,-5972.485210,-9265.009107
830.074032,-593.420005,210.568389,-6489.334891
830.076594,4173.082614,5857.629725,-7580.461997
830.079155,-3771.088418,-899.701298,-10681.560086
830.081717,-14586.646570,4479.363907,-9322.436850
830.084278,842.273555,3943.371645,-8595.018779
830.086840,5398.207786,-3043.670347,-8977.870395
830.089401,-4115.654872,478.564520,-8001.598774
830.091963,-6259.623922,5398.207786,-8346.165229
830.094525,5838.487144,-2067.398726,-9686.145885
830.097086,1110.269686,-4000.799387,-8097.311678
830.099648,-1148.554848,5398.207786,-7063.612315
830.102209,-727.418070,3196.810994,-9016.155557
830.104771,-4804.787781,153.140646,-10088.140082
830.107333,-6853.043926,1378.265818,-9016.155557
830.109894,-344.566454,3541.377448,-8652.446522
830.112456,2163.111630,-2756.531635,-8786.444587
830.115017,248.853550,287.138712,-7580.461997
830.117579,-2622.533570,2852.244539,-8250.452325
830.120140,-478.564520,57.427742,-11064.411702
830.122702,-5704.489078,-1033.699363,-9954.142016
830.125264,5474.778109,4670.789715,-6489.334891
830.127825,15888.342064,-7025.327154,-8212.167163
830.130387,-1435.693560,-191.425808,-8767.302006
830.132948,-3273.381317,6853.043926,-8327.022648
830.135510,5091.926493,-2794.816797,-9858.429112
830.138071,4498.506488,-3828.516160,-8863.014910
830.140633,-2124.826469,-3483.949706,-6585.047795
830.143195,15141.781413,1091.127106,-6795.616184
830.145756,12078.968485,-689.132909,-9073.583299
830.148318,-1627.119368,6814.758765,-9131.011042
830.150879,-3177.668413,1110.269686,-8997.012976
830.153443,-382.851616,-2947.957443,-9265.009107
830.156006,-1397.408398,3254.238736,-8652.446522
830.158569,746.560651,5915.057467,-8786.444587
830.161133,-842.273555,3598.805190,-10107.282662
830.163696,-1052.841944,593.420005,-8939.585234
830.166259,57.427742,-842.273555,-6987.041992
830.168823,6814.758765,-478.564520,-8307.880067
830.171386,-4498.506488,-267.996131,-9934.999435
830.173949,-8805.587168,5589.633594,-8671.589102
830.176513,3981.656806,-2163.111630,-8652.446522
830.179076,1531.406464,-2067.398726,-8824.729749
830.181639,-3273.381317,6163.911018,-7848.458128
830.184203,1990.828403,-1665.404530,-8633.303941
830.186766,-4766.502619,-1837.687757,-10470.991698
830.189329,-1186.840010,-363.709035,-8269.594906
830.191893,6297.909083,3139.383251,-6565.905214
830.194456,1416.550979,-4153.940034,-8384.450390
830.197020,-4747.360038,3579.662610,-9571.290400
830.199583,-1071.984525,4479.363907,-9341.579430
830.202146,-3637.090352,-3081.955509,-9169.296203
830.204710,-1971.685822,-1167.697429,-8288.737486
830.207273,6393.621987,1952.543242,-7637.889739
830.209836,-2392.822600,-1665.404530,-8556.733618
830.212400,10413.563955,1148.554848,-10030.712339
830.214963,-2469.392923,19.142581,-8346.165229
830.217526,-899.701298,3005.385186,-7752.745224
830.220090,6087.340694,-1014.556782,-9379.864592
830.222653,-57.427742,3177.668413,-8595.018779
830.225216,-1914.258080,1531.406464,-8997.012976
830.227780,1741.974853,1818.545176,-9628.718142
830.230343,1129.412267,2526.820666,-8671.589102
830.232906,4728.217458,-6355.336826,-7791.030386
830.235470,9226.723946,-4709.074877,-8633.303941
830.238033,-382.851616,-937.986459,-10145.567824
830.240596,-497.707101,3790.230998,-8480.163294
830.243160,9858.429112,-1205.982590,-8307.880067
830.245723,-899.701298,306.281293,-9035.298138
830.248286,-1148.554848,2124.826469,-8843.872330
830.250850,4804.787781,-4441.078746,-9609.575562
830.253413,-5379.065205,899.701298,-9801.001370
830.255978,4421.936165,4670.789715,-9169.296203
830.258542,-12002.398162,-1933.400661,-7905.885870
830.261107,-10241.280728,-631.705166,-10566.704602
830.263671,-4211.367776,3024.527766,-9207.581365
830.266236,2545.963246,1741.974853,-7963.313613
830.268800,1186.840010,-2009.970984,-8729.016845
830.271365,1033.699363,2009.970984,-7637.889739
830.273930,2699.103893,1875.972918,-7905.885870
830.276494,-5532.205851,765.703232,-9226.723946
830.279059,-8231.309744,3120.240670,-9781.858789
830.281623,7063.612315,459.421939,-7523.034254
830.284188,2009.970984,-1569.691626,-7733.602643
830.286752,3062.812928,3081.955509,-8652.446522
830.289317,-1990.828403,2373.680019,-8556.733618
830.291882,-1052.841944,-2545.963246,-8843.872330
830.294446,-363.709035,535.992262,-8767.302006
830.297011,-3158.525832,3464.807125,-8824.729749
830.299575,-6068.198114,1091.127106,-8480.163294
830.302140,-8977.870395,-2488.535504,-10470.991698
830.304705,3349.951640,2660.818731,-10375.278794
830.307269,9456.434915,-459.421939,-6853.043926
830.309834,10107.282662,-5283.352301,-8403.592971
830.312398,-631.705166,516.849682,-9131.011042
830.314963,-1071.984525,4441.078746,-8346.165229
830.317527,3675.375514,-2794.816797,-9494.720077
830.320092,-803.988394,-2258.824534,-9188.438784
830.322657,9341.579430,3158.525832,-7178.467800
830.325221,1416.550979,918.843878,-7197.610381
830.327786,-478.564520,-229.710970,-9437.292334
830.330350,7791.030386,-1071.984525,-9762.716208
830.332915,-1416.550979,-765.703232,-8250.452325
830.335479,2450.250342,-363.709035,-8920.442653
830.338044,-3062.812928,4364.508422,-8824.729749
830.340609,-229.710970,-2373.680019,-9533.005238
830.343173,-4192.225195,-1148.554848,-10126.425243
830.345738,4460.221326,5436.492947,-8748.159426
830.348302,-2737.389054,-727.418070,-6585.047795
830.350867,-631.705166,-3101.098090,-8480.163294
830.353431,1741.974853,382.851616,-10528.419440
830.355996,-5723.631659,3522.234867,-8327.022648
830.358562,2871.387120,-382.851616,-8595.018779
830.361127,3675.375514,-1684.547110,-8461.020714
830.363693,-1473.978722,3273.381317,-7274.180704
830.366258,2718.246474,-1435.693560,-8863.014910
830.368824,-4460.221326,669.990328,-10317.851051
830.371390,-2699.103893,3943.371645,-8307.880067
830.373955,344.566454,229.710970,-6795.616184
830.376521,-1875.972918,2124.826469,-8575.876198
830.379086,-4613.361973,-306.281293,-9667.003304
830.381652,-459.421939,2871.387120,-8327.022648
830.384218,2641.676150,-267.996131,-9073.583299
830.386783,-5627.918755,2967.100024,-8920.442653
830.389349,-2124.826469,3081.955509,-7944.171032
830.391915,-6604.190376,-2871.387120,-9762.716208
830.394480,6853.043926,1416.550979,-10011.569758
830.397046,11102.696864,-95.712904,-7044.469734
830.399611,650.847747,-4881.358104,-8384.450390
830.402177,-2316.252277,2067.398726,-9686.145885
830.404743,2450.250342,3254.238736,-8575.876198
830.407308,-3656.232933,-4383.651003,-9609.575562
830.409874,861.416136,-3292.523898,-9590.432981
830.412439,-765.703232,9552.147819,-7963.313613
830.415005,-2201.396792,1397.408398,-9571.290400
830.417571,-5819.344563,-4211.367776,-11160.124606
830.420136,8767.302006,-1971.685822,-9054.440718
830.422702,5895.914886,2143.969050,-6987.041992
830.425267,76.570323,669.990328,-8441.878133
830.427833,3790.230998,95.712904,-9341.579430
830.430399,-880.558717,-1780.260014,-9188.438784
830.432964,-3675.375514,-2967.100024,-10030.712339
830.435530,2086.541307,5130.211654,-9303.294269
830.438095,-10260.423309,2679.961312,-6853.043926
830.440662,2431.107762,-3732.803256,-8441.878133
830.443229,3369.094221,-2297.109696,-10145.567824
830.445796,-6680.760699,5302.494882,-8269.594906
830.448362,-229.710970,-1052.841944,-8327.022648
830.450929,3292.523898,-1971.685822,-9150.153622
830.453496,-976.271621,1761.117434,-7848.458128
830.456062,1416.550979,-3062.812928,-8939.585234
830.458629,631.705166,-1627.119368,-9111.868461
830.461196,6661.618118,3043.670347,-6049.055533
830.463763,8269.594906,-1110.269686,-5915.057467
830.466329,4785.645200,1550.549045,-8633.303941
830.468896,-5742.774240,2679.961312,-9647.860723
830.471463,-4268.795518,957.129040,-8958.727814
830.474029,-3024.527766,-937.986459,-9456.434915
830.476596,-6776.473603,3445.664544,-9609.575562
830.479163,-3713.660675,3062.812928,-8020.741355
830.481730,-1397.408398,133.998066,-11217.552349
830.484296,-2201.396792,-1875.972918,-10394.421374
830.486863,3828.516160,5321.637462,-6144.768437
830.489430,14299.507858,-5685.346498,-7810.172966
830.491996,57.427742,-1416.550979,-9322.436850
830.494563,-2450.250342,5264.209720,-8193.024582
